time,seconds_elapsed,z,y,x
1672908324355560400,0.066560546875,0,0,0
1672908324365211000,0.0762109375,-0.011987686157226562,-0.005938410758972168,-0.0008361339569091797
1672908324374861300,0.085861328125,-0.07504558563232422,-0.018263190984725952,0.006229102611541748
1672908324384512000,0.095511962890625,-0.08680534362792969,0.02254125475883484,0.004820048809051514
1672908324394162400,0.105162353515625,-0.05218315124511719,-0.013946473598480225,-0.011583179235458374
1672908324403812900,0.114812744140625,0.03632354736328125,0.01666852831840515,0.00038951635360717773
1672908324413463600,0.124463623046875,0.035210609436035156,-0.014465808868408203,0.011155486106872559
1672908324423114000,0.134114013671875,-0.04254341125488281,-0.0044059157371521,0.006143033504486084
1672908324432764400,0.143764404296875,-0.03144645690917969,-0.0039438605308532715,-0.024058789014816284
1672908324442415000,0.1534150390625,-0.015381813049316406,-0.012193381786346436,-0.02152910828590393
1672908324452065500,0.1630654296875,0.005595207214355469,-0.03303411602973938,-0.032559484243392944
1672908324461716000,0.172716064453125,0.011668205261230469,0.010966569185256958,0.01683834195137024
1672908324471366700,0.18236669921875,-0.004830360412597656,-0.017487704753875732,0.02409893274307251
1672908324481017000,0.19201708984375,-0.1001272201538086,0.005363523960113525,-0.028209269046783447
1672908324490667500,0.20166748046875,-0.0954446792602539,0.042102426290512085,-0.08832740783691406
1672908324500318200,0.211318115234375,0.0702505111694336,-0.002243727445602417,-0.002886742353439331
1672908324509968600,0.22096875,0.10920333862304688,-0.04420208930969238,0.038846611976623535
1672908324519619000,0.230619140625,0.02641010284423828,-0.033434152603149414,0.007614433765411377
1672908324529269800,0.240269775390625,-0.05654621124267578,-0.04272639751434326,0.014831840991973877
1672908324538920200,0.249920166015625,-0.051438331604003906,0.009141683578491211,0.041073739528656006
1672908324548571000,0.25957080078125,0.048954010009765625,0.017035096883773804,0.040560245513916016
1672908324558221300,0.26922119140625,-0.008227348327636719,0.04055032134056091,-0.0031480789184570312
1672908324567871700,0.278871826171875,-0.014752388000488281,0.01095685362815857,-0.03046610951423645
1672908324577522400,0.2885224609375,-0.011796951293945312,-0.0005582571029663086,0.0114632248878479
1672908324587172900,0.2981728515625,-0.006621360778808594,-0.015328943729400635,-0.0017323493957519531
1672908324596823300,0.3078232421875,0.014552116394042969,-0.0013279318809509277,-0.027314305305480957
1672908324606474000,0.317473876953125,0.030356407165527344,-0.027318865060806274,0.0008127093315124512
1672908324616124400,0.32712451171875,0.010927200317382812,-0.00004363059997558594,0.024423658847808838
1672908324625774800,0.33677490234375,-0.024079322814941406,-0.009047120809555054,0.009063541889190674
1672908324635425500,0.346425537109375,-0.023267745971679688,-0.011203765869140625,0.013130784034729004
1672908324645076000,0.356075927734375,0.014553070068359375,0.016877472400665283,0.01725172996520996
1672908324654726700,0.3657265625,0.051148414611816406,0.009090125560760498,0.024583637714385986
1672908324664377000,0.375377197265625,0.0076808929443359375,0.012549072504043579,0.011773407459259033
1672908324674027500,0.385027587890625,-0.05772590637207031,-0.0004037618637084961,-0.010222434997558594
1672908324683678200,0.39467822265625,-0.06541824340820312,-0.005232095718383789,-0.02789705991744995
1672908324693328600,0.40432861328125,0.020234107971191406,-0.00915554165840149,-0.015908420085906982
1672908324702979000,0.41397900390625,0.038433074951171875,-0.00804203748703003,-0.024007827043533325
1672908324712629800,0.423629638671875,0.04919242858886719,-0.023454874753952026,-0.013434350490570068
1672908324722280200,0.4332802734375,-0.017307281494140625,-0.015273422002792358,-0.00019365549087524414
1672908324731930600,0.4429306640625,-0.04250621795654297,-0.026257365942001343,0.006162703037261963
1672908324741581300,0.452581298828125,0.009902000427246094,0.018566250801086426,0.02483201026916504
1672908324751231700,0.462231689453125,0.04228973388671875,0.008023262023925781,0.048924028873443604
1672908324760882400,0.47188232421875,0.00841522216796875,0.0067532360553741455,0.007908523082733154
1672908324770532900,0.481532958984375,-0.048053741455078125,-0.010640770196914673,-0.01852688193321228
1672908324780183300,0.491183349609375,-0.028324127197265625,0.0008298754692077637,0.006217360496520996
1672908324789834000,0.500833984375,0.01674365997314453,0.019414544105529785,0.009235978126525879
1672908324799484400,0.510484375,0.03737068176269531,-0.011871248483657837,0.017781555652618408
1672908324809134800,0.520134765625,-0.019792556762695312,0.018101900815963745,-0.008837401866912842
1672908324818785500,0.52978564453125,-0.05467033386230469,-0.00395539402961731,-0.0351981520652771
1672908324828436000,0.53943603515625,0.01899242401123047,-0.0047383904457092285,0.015044689178466797
1672908324838086400,0.54908642578125,0.034821510314941406,-0.00836452841758728,-0.002804398536682129
1672908324847737000,0.558737060546875,-0.01058197021484375,0.02357521653175354,-0.038662999868392944
1672908324857387500,0.568387451171875,0.0037555694580078125,0.008896827697753906,-0.02712392807006836
1672908324867038200,0.5780380859375,0.07187652587890625,0.01827561855316162,0.014853239059448242
1672908324876688600,0.587688720703125,0.06110954284667969,-0.0035744309425354004,0.03425711393356323
1672908324886339000,0.597339111328125,-0.050537109375,0.002957969903945923,0.0012034773826599121
1672908324895989800,0.60698974609375,-0.03790569305419922,-0.021141111850738525,-0.012958943843841553
1672908324905640200,0.61664013671875,0.03561592102050781,-0.00723382830619812,0.03531289100646973
1672908324915290600,0.62629052734375,0.03488731384277344,-0.019907504320144653,-0.001161426305770874
1672908324924941300,0.63594140625,-0.003448486328125,-0.03478935360908508,-0.04247206449508667
1672908324934591700,0.645591796875,-0.02222919464111328,-0.01825699210166931,-0.04437297582626343
1672908324944242400,0.655242431640625,-0.005341529846191406,0.01968991756439209,-0.018503457307815552
1672908324953892900,0.664892822265625,0.020687103271484375,0.010081082582473755,-0.02838343381881714
1672908324963543300,0.674543212890625,-0.005488395690917969,-0.0887199342250824,-0.038441002368927
1672908324973194000,0.684194091796875,-0.010043144226074219,-0.10128101706504822,-0.03425505757331848
1672908324982844400,0.693844482421875,0.0489044189453125,-0.0580829381942749,0.03787261247634888
1672908324992494800,0.703494873046875,0.02902698516845703,0.03253480792045593,0.03801968693733215
1672908325002145500,0.7131455078125,-0.06821441650390625,0.027310550212860107,0.026453644037246704
1672908325011796000,0.7227958984375,-0.07429981231689453,0.008782178163528442,0.04231417179107666
1672908325021446700,0.73244677734375,-0.026079177856445312,0.024362564086914062,0.005493372678756714
1672908325031097000,0.74209716796875,0.012004852294921875,0.04499828815460205,-0.03437504172325134
1672908325040747500,0.75174755859375,-0.011618614196777344,0.042366206645965576,-0.06176963448524475
1672908325050398200,0.761398193359375,0.028697967529296875,0.013777434825897217,-0.022502630949020386
1672908325060048600,0.771048583984375,-0.007119178771972656,0.018293768167495728,0.07493001222610474
1672908325069699000,0.780698974609375,-0.028253555297851562,-0.05293813347816467,0.001801133155822754
1672908325079349800,0.790349853515625,0.021579742431640625,-0.04608732461929321,0.007295429706573486
1672908325089000200,0.800000244140625,0.03994274139404297,0.0002162158489227295,-0.010393917560577393
1672908325098651000,0.80965087890625,0.029689788818359375,0.0010209381580352783,0.008711755275726318
1672908325108301300,0.81930126953125,0.02425098419189453,-0.015172511339187622,0.004975110292434692
1672908325117951700,0.82895166015625,-0.0022859573364257812,-0.010642379522323608,-0.041469842195510864
1672908325127602400,0.8386025390625,-0.070648193359375,0.0058061182498931885,-0.05150771141052246
1672908325137252900,0.8482529296875,-0.08354568481445312,0.023951053619384766,-0.03085041046142578
1672908325146903300,0.8579033203125,0.005097389221191406,0.024879097938537598,-0.0018541514873504639
1672908325156554000,0.867553955078125,0.1086893081665039,-0.0070597827434539795,0.00895071029663086
1672908325166204400,0.877204345703125,0.022203445434570312,-0.010946810245513916,-0.006432086229324341
1672908325175854800,0.886854736328125,-0.0840158462524414,-0.0008161067962646484,-0.007830232381820679
1672908325185505500,0.896505615234375,-0.037804603576660156,0.0024782419204711914,0.03126809000968933
1672908325195156000,0.906156005859375,0.03352069854736328,0.03190162777900696,0.0018416047096252441
1672908325204806700,0.915806640625,0.05659675598144531,0.006515920162200928,-0.01353543996810913
1672908325214457000,0.92545703125,0.01099395751953125,0.04248318076133728,-0.004830390214920044
1672908325224107500,0.935107421875,-0.05275249481201172,-0.004545927047729492,0.042807936668395996
1672908325233758200,0.94475830078125,-0.058882713317871094,0.048542171716690063,-0.0005939304828643799
1672908325243408600,0.95440869140625,-0.005980491638183594,-0.004682689905166626,-0.013851314783096313
1672908325253059300,0.964059326171875,0.0671682357788086,0.0062577128410339355,0.03533557057380676
1672908325262709800,0.973709716796875,-0.08700942993164062,0.00035879015922546387,0.015046894550323486
1672908325272360200,0.983360107421875,-0.08094024658203125,-0.1591644585132599,-0.11255496740341187
1672908325282011000,0.993010986328125,0.2050943374633789,0.01878988742828369,0.056792646646499634
1672908325291661300,1.002661376953125,-0.012627601623535156,0.03189995884895325,-0.009087711572647095
1672908325301312000,1.01231201171875,-0.0852651596069336,-0.00951617956161499,-0.06952232122421265
1672908325310962400,1.02196240234375,-0.027131080627441406,-0.002599656581878662,-0.003067910671234131
1672908325320612900,1.03161279296875,0.06295299530029297,-0.01794293522834778,0.029547840356826782
1672908325330263600,1.041263671875,0.04552650451660156,-0.01733836531639099,0.03662833571434021
1672908325339914000,1.0509140625,-0.0021810531616210938,-0.018592923879623413,-0.015548229217529297
1672908325349564700,1.060564697265625,-0.020734786987304688,0.02798524498939514,-0.026176542043685913
1672908325359215000,1.070215087890625,0.015246391296386719,-0.008042752742767334,-0.007149845361709595
1672908325368865500,1.079865478515625,0.008243560791015625,0.022444218397140503,-0.0023415684700012207
1672908325378516200,1.08951611328125,-0.0033969879150390625,0.00988095998764038,0.0031785964965820312
1672908325388166700,1.099166748046875,0.001491546630859375,0.0013353824615478516,0.017928600311279297
1672908325397817000,1.108817138671875,-0.01754474639892578,-0.013403892517089844,0.06301873922348022
1672908325407467800,1.1184677734375,-0.05534076690673828,-0.027004748582839966,0.0734749436378479
1672908325417118200,1.1281181640625,-0.06187248229980469,0.013604223728179932,-0.03457033634185791
1672908325426769000,1.137768798828125,0.05663013458251953,-0.006834924221038818,-0.023126840591430664
1672908325436419300,1.14741943359375,0.1143960952758789,-0.014883309602737427,-0.020574629306793213
1672908325446069800,1.15706982421875,0.02534008026123047,-0.025157630443572998,-0.04829409718513489
1672908325455720400,1.166720458984375,-0.09508228302001953,0.009748399257659912,-0.018674194812774658
1672908325465371000,1.176370849609375,-0.05806446075439453,0.011506140232086182,0.0025414228439331055
1672908325475021300,1.186021240234375,-0.012296676635742188,-0.0013984739780426025,0.01701834797859192
1672908325484672000,1.195672119140625,-0.06383037567138672,-0.022175103425979614,-0.027888357639312744
1672908325494322400,1.205322509765625,-0.07202720642089844,-0.01985621452331543,-0.02980095148086548
1672908325503973000,1.21497314453125,-0.08928108215332031,-0.03236919641494751,-0.03859943151473999
1672908325513623600,1.22462353515625,-0.13427162170410156,-0.05547606945037842,-0.09916993975639343
1672908325523274200,1.234274169921875,0.1672077178955078,-0.02109178900718689,0.07899868488311768
1672908325532924700,1.243924560546875,0.4039163589477539,0.0920620709657669,0.3034481406211853
1672908325542575000,1.2535751953125,0.14899158477783203,-0.03501540422439575,0.04410821199417114
1672908325552225800,1.263225830078125,-0.04981517791748047,-0.09496074914932251,-0.04819265007972717
1672908325561876200,1.272876220703125,0.009613037109375,-0.19620463252067566,-0.28349220752716064
1672908325571527000,1.28252685546875,0.22156143188476562,-0.42402637004852295,-0.35910481214523315
1672908325581177300,1.29217724609375,0.06754779815673828,-0.6792742013931274,-0.2531384229660034
1672908325590827800,1.301827880859375,-0.22506141662597656,-0.8562612533569336,-0.12377411127090454
1672908325600478500,1.311478515625,-0.36187744140625,-1.105178952217102,0.036750584840774536
1672908325610129000,1.32112890625,-0.3616952896118164,-0.8785409927368164,0.11441487073898315
1672908325619779300,1.330779296875,0.0717010498046875,-0.8243088126182556,0.37307506799697876
1672908325629430000,1.340429931640625,0.38202476501464844,-0.7854956388473511,0.4162307381629944
1672908325639080400,1.35008056640625,0.2606468200683594,-0.5968530178070068,0.3445531725883484
1672908325648731100,1.359731201171875,-0.03761005401611328,-0.6802561283111572,0.04761707782745361
1672908325658381600,1.369381591796875,0.02913188934326172,-0.9420138597488403,-0.1989593803882599
1672908325668032000,1.379031982421875,0.2097158432006836,-1.592484474182129,-0.2461356669664383
1672908325677682700,1.3886826171875,0.07888507843017578,-2.0446646213531494,-0.3265160918235779
1672908325687333000,1.3983330078125,-0.025970458984375,-1.903670310974121,-0.28097233176231384
1672908325696983800,1.40798388671875,-0.02582550048828125,-1.890397548675537,-0.08401837944984436
1672908325706634200,1.41763427734375,-0.07117080688476562,-2.0173423290252686,0.03780019283294678
1672908325716285000,1.427284912109375,-0.06412410736083984,-1.5882036685943604,-0.06713241338729858
1672908325725935400,1.436935302734375,-0.054717063903808594,-1.628685474395752,0.3296431601047516
1672908325735585800,1.446585693359375,-0.038191795349121094,-1.6707422733306885,0.8834932446479797
1672908325745236500,1.456236572265625,0.0234832763671875,-1.7181165218353271,0.9185638427734375
1672908325754887000,1.465886962890625,-0.1028900146484375,-1.505650281906128,0.7654838562011719
1672908325764537600,1.47553759765625,-0.07595157623291016,-1.270498514175415,0.4282163381576538
1672908325774188000,1.48518798828125,0.1505899429321289,-0.9120875597000122,0.2821204364299774
1672908325783838500,1.49483837890625,0.1186361312866211,-0.7837707996368408,0.054125040769577026
1672908325793489200,1.5044892578125,0.2528219223022461,-0.6184419393539429,-0.14626148343086243
1672908325803139600,1.5141396484375,0.0003032684326171875,-0.825776994228363,-0.04591742157936096
1672908325812790300,1.523790283203125,-0.048867225646972656,-0.5058380365371704,0.18410933017730713
1672908325822440700,1.533440673828125,-0.062491416931152344,-0.5530121326446533,0.11868947744369507
1672908325832091100,1.543091064453125,0.061453819274902344,0.08882516622543335,0.35207709670066833
1672908325841741800,1.552741943359375,0.11524391174316406,0.27458858489990234,0.4127591550350189
1672908325851392300,1.562392333984375,0.05920982360839844,0.3721762001514435,0.24400033056735992
1672908325861043000,1.57204296875,-0.13409805297851562,0.20965328812599182,-0.5078259706497192
1672908325870693400,1.581693359375,-0.511042594909668,0.1749342381954193,-0.5046895146369934
1672908325880343800,1.59134375,-0.6066522598266602,0.6472594141960144,-0.36722761392593384
1672908325889994500,1.600994384765625,-0.5703239440917969,0.9205405712127686,-0.11324939876794815
1672908325899645000,1.61064501953125,-0.3435688018798828,1.1953356266021729,0.20781907439231873
1672908325909295600,1.620295654296875,0.04358100891113281,1.5337066650390625,0.261354923248291
1672908325918946000,1.629946044921875,0.5805044174194336,2.031677007675171,0.17869162559509277
1672908325928596500,1.639596435546875,0.4099559783935547,1.9165512323379517,0.03169474005699158
1672908325938247200,1.6492470703125,-0.03515815734863281,1.8772406578063965,-0.1203833520412445
1672908325947897600,1.658897705078125,-0.2367706298828125,1.32030189037323,-0.26755768060684204
1672908325957548300,1.66854833984375,-0.36309146881103516,0.8979974985122681,-0.48296457529067993
1672908325967198700,1.67819873046875,-0.16970539093017578,0.9894039630889893,-0.06218114495277405
1672908325976849400,1.687849365234375,0.17218971252441406,1.2573541402816772,0.3270244598388672
1672908325986499800,1.697499755859375,0.2309894561767578,1.4165071249008179,0.5595568418502808
1672908325996150300,1.707150390625,0.2940959930419922,1.65901517868042,0.24566617608070374
1672908326005801000,1.716801025390625,0.07116127014160156,1.6167285442352295,-0.1243123859167099
1672908326015451400,1.726451416015625,-0.0838479995727539,1.4224298000335693,-0.21354004740715027
1672908326025102000,1.73610205078125,-0.39028358459472656,1.1194791793823242,0.2647521495819092
1672908326034752500,1.74575244140625,-0.39737510681152344,0.7655659317970276,0.7890145778656006
1672908326044403000,1.75540283203125,-0.0973520278930664,0.40824756026268005,0.659948468208313
1672908326054053600,1.7650537109375,0.04143714904785156,-0.04233306646347046,0.4439507722854614
1672908326063704000,1.7747041015625,0.0745706558227539,-0.011300504207611084,0.1277501881122589
1672908326073354800,1.784354736328125,-0.0639810562133789,0.14384675025939941,0.16016855835914612
1672908326083005200,1.794005126953125,-0.0018901824951171875,0.43978074193000793,0.20603007078170776
1672908326092655900,1.80365576171875,0.07880783081054688,0.46945053339004517,-0.022544004023075104
1672908326102306300,1.813306396484375,-0.18841171264648438,0.7224190831184387,-0.08572423458099365
1672908326111956700,1.822956787109375,-0.018259048461914062,1.0115513801574707,-0.0048714280128479
1672908326121607400,1.832607421875,0.0701751708984375,0.7558074593544006,0.4040642976760864
1672908326131257900,1.8422578125,0.27718067169189453,0.6742879152297974,0.09387923777103424
1672908326140908300,1.851908203125,-0.03837871551513672,0.6475113034248352,0.0479506254196167
1672908326150559000,1.86155908203125,0.0192413330078125,0.501971960067749,0.03061637282371521
1672908326160209400,1.87120947265625,-0.08307647705078125,0.05348259210586548,-0.05938262864947319
1672908326169860000,1.880860107421875,0.32440948486328125,-0.25317078828811646,-0.24451930820941925
1672908326179510500,1.890510498046875,0.16022014617919922,0.07425686717033386,-0.5108871459960938
1672908326189161200,1.9001611328125,-0.4124889373779297,0.5013419985771179,-0.5276005268096924
1672908326198811600,1.909811767578125,-0.14828014373779297,0.7383155226707458,-0.23370438814163208
1672908326208462300,1.91946240234375,0.0815267562866211,0.44540295004844666,0.20378145575523376
1672908326218112800,1.92911279296875,0.1389141082763672,0.24327164888381958,-0.0025468021631240845
1672908326227763200,1.93876318359375,0.05090522766113281,0.3223615288734436,-0.35855239629745483
1672908326237414000,1.948413818359375,-0.08176231384277344,0.12257260084152222,-0.5198233723640442
1672908326247064300,1.958064208984375,-0.07564830780029297,-0.16986316442489624,-0.5718698501586914
1672908326256714800,1.96771484375,-0.01265716552734375,-0.05301308631896973,-0.48268118500709534
1672908326266365400,1.977365478515625,0.16388797760009766,0.03083878755569458,-0.20887768268585205
1672908326276015900,1.987015869140625,0.0985708236694336,0.08832699060440063,-0.4346379041671753
1672908326285666600,1.99666650390625,-0.2165508270263672,-0.060455143451690674,-0.16213108599185944
1672908326295317000,2.00631689453125,-0.0036001205444335938,-0.1533757448196411,-0.5825213193893433
1672908326304967700,2.0159677734375,-0.20602798461914062,-0.08856993913650513,-0.6973211765289307
1672908326314618000,2.0256181640625,-0.17622089385986328,0.0304642915725708,-0.5547333359718323
1672908326324268500,2.0352685546875,0.20354175567626953,0.24583718180656433,-0.6005305647850037
1672908326333919200,2.044919189453125,0.2739076614379883,0.6112959980964661,-0.4982496500015259
1672908326343569700,2.054569580078125,0.1771087646484375,0.4078840911388397,-0.2906514108181
1672908326353220400,2.064220458984375,0.30478763580322266,0.03182464838027954,-0.5811536312103271
1672908326362870800,2.073870849609375,0.1150808334350586,0.20069089531898499,-0.9053691029548645
1672908326372521500,2.083521484375,-0.13792991638183594,0.46776145696640015,-1.0217247009277344
1672908326382172000,2.093171875,-0.2942991256713867,0.2934367060661316,-0.9578390121459961
1672908326391822600,2.102822509765625,-0.15433883666992188,0.23803094029426575,-0.7014298439025879
1672908326401473000,2.11247314453125,-0.07932567596435547,0.31305408477783203,-0.663276195526123
1672908326411123500,2.12212353515625,0.0690450668334961,0.4571382999420166,-0.6028310060501099
1672908326420774100,2.131774169921875,0.27356719970703125,0.3048156499862671,-0.5050275921821594
1672908326430424600,2.141424560546875,0.28742408752441406,0.32191210985183716,-0.5053202509880066
1672908326440075300,2.1510751953125,0.18546772003173828,0.2603065073490143,-0.5163347125053406
1672908326449725700,2.1607255859375,0.019159317016601562,0.3009234666824341,-0.12555207312107086
1672908326459376000,2.170376220703125,-0.18196487426757812,0.5502009391784668,-0.05629495531320572
1672908326469026800,2.18002685546875,-0.1134195327758789,0.8071162104606628,-0.4433562159538269
1672908326478677200,2.18967724609375,0.13317584991455078,0.7525933980941772,-0.5094594359397888
1672908326488328000,2.199327880859375,0.22985458374023438,0.734247624874115,-0.4773608148097992
1672908326497978400,2.208978271484375,0.3932943344116211,0.6466479301452637,-0.3569045662879944
1672908326507629000,2.218629150390625,-0.09562110900878906,0.5816053152084351,-0.45447802543640137
1672908326517279500,2.228279541015625,-0.6822996139526367,0.6452534198760986,-0.7036266922950745
1672908326526930000,2.237929931640625,-0.3835439682006836,0.5974599123001099,-0.2879447340965271
1672908326536580600,2.24758056640625,0.0043506622314453125,0.5314844250679016,-0.014505743980407715
1672908326546231000,2.25723095703125,0.18807220458984375,0.5355526208877563,0.019394338130950928
1672908326555881700,2.2668818359375,0.5406675338745117,0.6106910705566406,-0.061647504568099976
1672908326565532200,2.2765322265625,0.6473140716552734,0.6203244924545288,-0.7035146355628967
1672908326575182800,2.286182861328125,0.5356025695800781,0.3361104726791382,-0.9395980834960938
1672908326584833300,2.295833251953125,0.25859642028808594,-0.2433415949344635,-1.0799007415771484
1672908326594483700,2.305483642578125,-0.2045574188232422,-0.20643392205238342,-1.015761375427246
1672908326604134400,2.315134521484375,-0.3635072708129883,-0.10445311665534973,-1.1432616710662842
1672908326613784800,2.324784912109375,-0.6023635864257812,0.11146850883960724,-1.258436918258667
1672908326623435500,2.334435546875,-0.40387439727783203,0.188020721077919,-0.9842166900634766
1672908326633086000,2.3440859375,-0.4438953399658203,0.19234582781791687,-0.8128998279571533
1672908326642736600,2.353736572265625,-0.29509544372558594,0.23724831640720367,-0.22123149037361145
1672908326652387000,2.363386962890625,-0.24565792083740234,0.5305882692337036,0.047331422567367554
1672908326662037500,2.37303759765625,0.13749122619628906,0.7223550081253052,0.287721186876297
1672908326671688200,2.382688232421875,0.4727048873901367,0.5764819383621216,-0.2523331046104431
1672908326681338600,2.392338623046875,0.4472503662109375,0.39942097663879395,0.5940605401992798
1672908326690989300,2.4019892578125,0.4098663330078125,0.3139578402042389,0.9438693523406982
1672908326700639700,2.4116396484375,0.15589046478271484,0.22266237437725067,0.5205956697463989
1672908326710290400,2.42129052734375,0.0686187744140625,0.15746460855007172,1.0695960521697998
1672908326719940900,2.43094091796875,-0.11745262145996094,0.19588631391525269,1.7976727485656738
1672908326729591600,2.440591552734375,-0.517888069152832,0.16092835366725922,1.9234421253204346
1672908326739242000,2.450241943359375,-1.0534543991088867,0.2952558100223541,1.4512478113174438
1672908326748892400,2.459892333984375,-0.7672653198242188,0.4240275025367737,1.4745045900344849
1672908326758543000,2.469543212890625,-0.5491189956665039,0.8481147289276123,0.3481362760066986
1672908326768193500,2.479193603515625,0.043170928955078125,0.9936906695365906,-0.4488973021507263
1672908326777844200,2.48884423828125,0.6195878982543945,1.0992770195007324,0.02513548731803894
1672908326787494700,2.49849462890625,0.7338533401489258,0.7571812868118286,0.4627534747123718
1672908326797145300,2.508145263671875,0.4946756362915039,0.14700591564178467,-0.15185929834842682
1672908326806795800,2.517795654296875,0.25380802154541016,-0.17073386907577515,-0.6814594864845276
1672908326816446200,2.5274462890625,0.1090250015258789,-0.3266167640686035,-0.5472917556762695
1672908326826097000,2.537096923828125,-0.11637210845947266,0.16014307737350464,-0.5362012982368469
1672908326835747300,2.546747314453125,0.11713600158691406,0.4827369153499603,-0.3580825626850128
1672908326845398000,2.55639794921875,0.3045835494995117,0.467164546251297,-0.0783410593867302
1672908326855048400,2.56604833984375,-0.009456634521484375,0.407759428024292,0.19472159445285797
1672908326864699100,2.57569921875,-0.26976680755615234,0.09743669629096985,0.5016353130340576
1672908326874349600,2.585349609375,-0.39067840576171875,0.07673032581806183,0.5544681549072266
1672908326884000300,2.595000244140625,-0.5396537780761719,0.03897782787680626,-0.11901943385601044
1672908326893650700,2.604650634765625,-0.43990516662597656,0.04425990581512451,-0.6753915548324585
1672908326903301000,2.614301025390625,-0.4143505096435547,-0.045679736882448196,-0.6904458403587341
1672908326912951800,2.623951904296875,-0.27668190002441406,-0.09655311703681946,0.07910776138305664
1672908326922602200,2.633602294921875,-0.19190597534179688,0.20846429467201233,0.024862580001354218
1672908326932253000,2.6432529296875,0.3123350143432617,0.31972238421440125,0.12540167570114136
1672908326941903400,2.6529033203125,0.26133251190185547,-0.18448829650878906,0.8788453340530396
1672908326951554000,2.662553955078125,0.0007076263427734375,-0.26449453830718994,1.3822386264801025
1672908326961204500,2.67220458984375,-0.37096405029296875,-0.054728101938962936,1.4651631116867065
1672908326970855000,2.68185498046875,-0.6720085144042969,0.04980391263961792,1.4459201097488403
1672908326980505600,2.691505615234375,-0.7142372131347656,0.40323570370674133,1.1625981330871582
1672908326990156000,2.701156005859375,-0.23880958557128906,0.5800873041152954,0.5719012022018433
1672908326999806700,2.710806640625,0.0104522705078125,0.5949512720108032,0.2266174852848053
1672908327009457200,2.72045703125,-0.0035448074340820312,0.11570499837398529,-0.061866894364356995
1672908327019107800,2.73010791015625,-0.22249889373779297,-0.1814398467540741,-0.285222589969635
1672908327028758300,2.73975830078125,-0.29036808013916016,-0.17404486238956451,-0.45448413491249084
1672908327038409000,2.749408935546875,-0.4749011993408203,-0.08715182542800903,-0.43180233240127563
1672908327048059400,2.759059326171875,-0.34855079650878906,-0.19864416122436523,0.41406431794166565
1672908327057710000,2.7687099609375,-0.2748241424560547,-0.26300719380378723,0.9344505667686462
1672908327067360500,2.778360595703125,-0.17726707458496094,-0.255728542804718,1.3962804079055786
1672908327077011000,2.788010986328125,0.02467823028564453,-0.444215327501297,1.8692065477371216
1672908327086661600,2.79766162109375,0.1323699951171875,-0.3223622739315033,2.3448486328125
1672908327096312000,2.80731201171875,0.5706672668457031,-0.1990777850151062,2.104659080505371
1672908327105962800,2.816962646484375,0.7254362106323242,-0.40945887565612793,1.899715781211853
1672908327115613200,2.82661328125,1.0153923034667969,-0.5987687110900879,1.7234141826629639
1672908327125264000,2.836263916015625,0.9249448776245117,-0.6949378252029419,1.636396884918213
1672908327134914300,2.845914306640625,0.7704906463623047,-0.7223239541053772,1.2889155149459839
1672908327144565000,2.85556494140625,0.535700798034668,-0.9056483507156372,0.7621949911117554
1672908327154215400,2.86521533203125,0.2162342071533203,-0.6641827821731567,0.5926133394241333
1672908327163865900,2.874865966796875,-0.0037698745727539062,-0.6593122482299805,0.5702606439590454
1672908327173516500,2.8845166015625,0.19268131256103516,-0.6919483542442322,0.8466233611106873
1672908327183167000,2.8941669921875,0.5153446197509766,-0.9346277713775635,0.5337352752685547
1672908327192817700,2.903817626953125,0.9942760467529297,-1.022986888885498,0.2118658721446991
1672908327202468000,2.913468017578125,0.9652900695800781,-1.1137856245040894,0.42558056116104126
1672908327212118800,2.923118896484375,0.27271270751953125,-0.5480711460113525,0.648025631904602
1672908327221769200,2.932769287109375,-0.9950218200683594,-0.6952335238456726,0.5795027017593384
1672908327231420000,2.942419921875,-1.8003158569335938,-0.36651378870010376,0.705751895904541
1672908327241070300,2.9520703125,-1.4958019256591797,-0.37484830617904663,0.8299791216850281
1672908327250721000,2.961720947265625,-0.8486518859863281,-1.2398685216903687,0.9529144763946533
1672908327260371500,2.971371337890625,0.06876373291015625,-0.7621228098869324,1.0500497817993164
1672908327270022000,2.98102197265625,0.49214935302734375,-0.7270828485488892,0.6971631050109863
1672908327279672600,2.990672607421875,0.22017860412597656,-0.6567270755767822,0.16091227531433105
1672908327289323000,3.000322998046875,0.1354837417602539,-0.8366962671279907,-0.2179814875125885
1672908327298973700,3.0099736328125,-0.12542152404785156,-1.3524534702301025,-0.2544485926628113
1672908327308624100,3.0196240234375,-0.18523883819580078,-1.3358852863311768,-0.08500546216964722
1672908327318274800,3.02927490234375,-0.04238700866699219,-0.9426394701004028,-0.08139276504516602
1672908327327925200,3.03892529296875,0.009020805358886719,-0.8985086679458618,-0.08557263016700745
1672908327337576000,3.048575927734375,0.25025367736816406,-0.41688770055770874,0.4424264430999756
1672908327347226400,3.058226318359375,0.05089282989501953,-0.2333935648202896,0.6227937340736389
1672908327356877000,3.067876953125,0.1262054443359375,-0.32249563932418823,0.45930570363998413
1672908327366527500,3.077527587890625,-0.013331413269042969,-0.6329865455627441,0.45302724838256836
1672908327376178000,3.087177978515625,-0.5507526397705078,-0.820554256439209,0.5887624621391296
1672908327385828600,3.09682861328125,-1.055429458618164,-0.7199989557266235,0.42805689573287964
1672908327395479000,3.10647900390625,-1.2409296035766602,-0.7108873128890991,0.0719488263130188
1672908327405129700,3.116129638671875,-0.8360967636108398,-0.46035856008529663,-0.3963254690170288
1672908327414780200,3.1257802734375,-0.024275779724121094,-0.1370680332183838,-1.0526140928268433
1672908327424430800,3.135430908203125,0.5108127593994141,-0.33062928915023804,-1.0111372470855713
1672908327434081300,3.145081298828125,1.0821819305419922,-0.47414904832839966,-0.6199259757995605
1672908327443732000,3.15473193359375,0.4815816879272461,-0.9197299480438232,-0.29400399327278137
1672908327453382400,3.16438232421875,-0.2753734588623047,-0.7618435621261597,0.49386054277420044
1672908327463033000,3.174033203125,-0.8870515823364258,-1.3628265857696533,0.9319674372673035
1672908327472683500,3.18368359375,-0.6084270477294922,-1.3829007148742676,0.6314204931259155
1672908327482334200,3.193334228515625,0.4241905212402344,-1.3760344982147217,0.3085513710975647
1672908327491984600,3.202984619140625,1.2992753982543945,-1.2428944110870361,-0.007000088691711426
1672908327501635000,3.212635009765625,1.6140174865722656,-1.3116735219955444,-0.4344441890716553
1672908327511285800,3.22228564453125,1.157125473022461,-1.2148293256759644,-0.6275808215141296
1672908327520936200,3.231936279296875,0.6818647384643555,-0.5753681659698486,0.3188682198524475
1672908327530587000,3.2415869140625,0.12347984313964844,-0.471626341342926,0.6013899445533752
1672908327540237300,3.2512373046875,-0.2932424545288086,-0.9428448677062988,0.7030997276306152
1672908327549888000,3.260887939453125,-0.28441905975341797,-1.1293302774429321,1.0828893184661865
1672908327559538400,3.270538330078125,0.13732242584228516,-1.441429615020752,1.043015956878662
1672908327569189000,3.280189208984375,-0.24567413330078125,-1.4021259546279907,1.4087793827056885
1672908327578839600,3.289839599609375,-0.5713930130004883,-1.4090187549591064,1.3133049011230469
1672908327588490200,3.299490234375,-0.7232599258422852,-1.4886479377746582,0.8671542406082153
1672908327598140700,3.309140625,-0.37030601501464844,-1.310686707496643,0.2557479739189148
1672908327607791000,3.318791015625,0.04164409637451172,-1.0155980587005615,-0.06393086910247803
1672908327617441800,3.32844189453125,0.4544553756713867,-0.6342508792877197,0.1793842315673828
1672908327627092500,3.338092529296875,0.13045215606689453,-0.42093443870544434,0.3508330285549164
1672908327636743000,3.347742919921875,-0.08347034454345703,-0.34551841020584106,0.8912397027015686
1672908327646393300,3.357393310546875,-0.07095718383789062,-0.5100484490394592,0.9472286701202393
1672908327656044000,3.3670439453125,-0.25666141510009766,-0.4200608432292938,1.020039439201355
1672908327665694500,3.376694580078125,-0.22391605377197266,-0.7848436832427979,1.1027902364730835
1672908327675345200,3.38634521484375,-0.25468921661376953,-1.0419189929962158,1.0042691230773926
1672908327684995600,3.39599560546875,0.04032325744628906,-0.9878988265991211,0.8637812733650208
1672908327694646300,3.405646240234375,0.21554183959960938,-0.8647215366363525,0.6818647980690002
1672908327704296700,3.415296630859375,-0.08475208282470703,-0.7687209844589233,0.3726775050163269
1672908327713947400,3.424947509765625,-0.48927879333496094,-0.8174742460250854,0.8979846239089966
1672908327723597800,3.434597900390625,-0.5921239852905273,-0.7898463606834412,0.7915374040603638
1672908327733248500,3.44424853515625,-0.01552581787109375,-0.4571886360645294,0.7290846109390259
1672908327742899000,3.45389892578125,-0.0766754150390625,-0.4046587347984314,1.0478432178497314
1672908327752549600,3.463549560546875,0.056980133056640625,-0.4513232409954071,1.4300899505615234
1672908327762200000,3.473199951171875,0.3226499557495117,-0.4631562829017639,1.1679400205612183
1672908327771850500,3.4828505859375,0.3151206970214844,-0.546018123626709,0.9927608370780945
1672908327781501200,3.492501220703125,0.26003074645996094,-0.6134999394416809,1.2965270280838013
1672908327791151900,3.50215185546875,-0.27907466888427734,-1.0051014423370361,1.3063468933105469
1672908327800802300,3.51180224609375,-0.5322589874267578,-1.133675217628479,0.8123206496238708
1672908327810452700,3.52145263671875,-0.3267364501953125,-1.0472509860992432,0.15709233283996582
1672908327820103400,3.531103515625,-0.20775699615478516,-0.8918161392211914,0.4414079785346985
1672908327829753900,3.54075390625,0.04479026794433594,-0.855832576751709,1.0926082134246826
1672908327839404500,3.550404541015625,0.07225608825683594,-1.0401322841644287,1.7543647289276123
1672908327849055000,3.560054931640625,-0.24903488159179688,-1.0674577951431274,2.365278959274292
1672908327858705700,3.56970556640625,-0.7675294876098633,-1.2858943939208984,2.5319623947143555
1672908327868356000,3.579356201171875,-1.172811508178711,-1.2889405488967896,2.87117862701416
1672908327878006800,3.5890068359375,-0.997807502746582,-1.153885841369629,2.8899412155151367
1672908327887657200,3.5986572265625,-1.1842670440673828,-1.2609975337982178,2.538390636444092
1672908327897308000,3.608307861328125,-0.47980690002441406,-1.73967444896698,2.2507476806640625
1672908327906958300,3.617958251953125,-0.2960224151611328,-1.6031076908111572,2.629744052886963
1672908327916608800,3.62760888671875,-0.43589115142822266,-1.563342809677124,2.372446060180664
1672908327926259500,3.637259521484375,-0.3560161590576172,-1.4695807695388794,1.7235174179077148
1672908327935910100,3.64691015625,-0.9399852752685547,-1.2415776252746582,1.2323391437530518
1672908327945560600,3.656560546875,-1.2117338180541992,-1.0590245723724365,1.086737871170044
1672908327955211000,3.6662109375,-1.1977968215942383,-0.9334428310394287,0.9863959550857544
1672908327964861700,3.67586181640625,-0.6047964096069336,-1.0226503610610962,0.6327381134033203
1672908327974512000,3.68551220703125,-0.21727752685546875,-1.3161624670028687,0.5500668287277222
1672908327984162800,3.695162841796875,0.3112773895263672,-1.516971468925476,0.8834285736083984
1672908327993813200,3.704813232421875,0.3383665084838867,-1.401607871055603,0.45576655864715576
1672908328003464000,3.7144638671875,1.206899642944336,-1.0408706665039062,-0.01833483576774597
1672908328013114400,3.7241142578125,2.6269989013671875,-0.612606406211853,-1.5781841278076172
1672908328022765000,3.73376513671875,2.538363456726074,-0.044228460639715195,-2.219555139541626
1672908328032415500,3.74341552734375,2.053255081176758,0.2188413143157959,-2.9854347705841064
1672908328042066200,3.753066162109375,1.662278175354004,0.20416229963302612,-3.4717369079589844
1672908328051716600,3.762716552734375,1.207533836364746,0.2935980558395386,-3.3153960704803467
1672908328061367300,3.7723671875,0.4887056350708008,0.432165265083313,-1.9452636241912842
1672908328071017700,3.782017822265625,0.23000335693359375,-0.2333981990814209,-3.4991323947906494
1672908328080668400,3.79166845703125,-0.7229642868041992,-0.12877418100833893,-2.4471757411956787
1672908328090318800,3.80131884765625,-0.47935009002685547,-0.17485368251800537,-1.988373041152954
1672908328099969300,3.81096923828125,-0.3123197555541992,-0.3482123613357544,-1.6282389163970947
1672908328109620000,3.820619873046875,-0.596165657043457,-0.14879895746707916,-1.1197178363800049
1672908328119270700,3.830270751953125,-0.15267181396484375,-0.47798094153404236,-0.8288626670837402
1672908328128921000,3.839921142578125,0.4519510269165039,-0.6785506010055542,-0.3195282518863678
1672908328138571500,3.849571533203125,0.3517265319824219,-0.12849737703800201,-0.04575890302658081
1672908328148222200,3.85922216796875,-0.2386913299560547,-0.050648510456085205,0.2147984504699707
1672908328157872600,3.86887255859375,-0.4057283401489258,-0.4952318072319031,0.011793732643127441
1672908328167523300,3.8785234375,-0.5657176971435547,-0.6331558227539062,0.08344393968582153
1672908328177173800,3.888173828125,-0.4625968933105469,-0.6513310670852661,0.03980296850204468
1672908328186824400,3.897824462890625,-0.2994194030761719,-0.6021150350570679,-0.4251886010169983
1672908328196475000,3.907474853515625,0.13188648223876953,-0.6404966115951538,-1.3453118801116943
1672908328206125600,3.91712548828125,0.08097362518310547,-0.6494674682617188,-1.436683177947998
1672908328215776000,3.92677587890625,0.1555490493774414,-0.6562111377716064,-1.5647225379943848
1672908328225426700,3.9364267578125,0.5938816070556641,-0.39214086532592773,-1.5690927505493164
1672908328235077000,3.9460771484375,0.1334857940673828,-0.05158926546573639,-0.38311415910720825
1672908328244727800,3.955727783203125,-0.34258174896240234,-0.08769005537033081,0.37080997228622437
1672908328254378200,3.965378173828125,-0.34903526306152344,-0.3302668631076813,0.46486949920654297
1672908328264029000,3.97502880859375,0.010379791259765625,-0.6153764128684998,-0.16815561056137085
1672908328273679400,3.984679443359375,0.5333271026611328,-0.7470955848693848,-0.860518217086792
1672908328283330000,3.994330078125,-0.050126075744628906,-0.1428571492433548,-0.6195515394210815
1672908328292980500,4.00398046875,-0.12668228149414062,0.23441818356513977,-0.44727373123168945
1672908328302631200,4.013631103515625,1.2357721328735352,-0.2954026758670807,-0.1722043752670288
1672908328312281600,4.023281494140625,1.5057239532470703,-0.2549706995487213,-0.33691203594207764
1672908328321932300,4.032932373046875,1.281437873840332,-0.05261199176311493,-1.051843523979187
1672908328331582700,4.042582763671875,0.5263862609863281,0.2708668112754822,-0.48141908645629883
1672908328341233200,4.052233154296875,-0.03008747100830078,0.08500626683235168,-1.2038781642913818
1672908328350883800,4.0618837890625,-1.1638727188110352,0.06307660043239594,-1.5158166885375977
1672908328360534500,4.071534423828125,-1.2602596282958984,0.07094767689704895,-0.9902117252349854
1672908328370185000,4.08118505859375,0.11726665496826172,-0.41307783126831055,-2.491061210632324
1672908328379835400,4.09083544921875,1.1698293685913086,-0.3239467740058899,-3.1870484352111816
1672908328389486000,4.100486083984375,1.1536235809326172,0.08321322500705719,-1.4572988748550415
1672908328399136500,4.110136474609375,1.0703649520874023,-0.4242791533470154,-0.4088517427444458
1672908328408787200,4.119787109375,0.3745718002319336,-0.7809039950370789,0.38017213344573975
1672908328418437600,4.129437744140625,-0.6948862075805664,-0.9154417514801025,1.3716299533843994
1672908328428088300,4.13908837890625,-0.9020547866821289,-1.1433097124099731,2.1359024047851562
1672908328437738800,4.14873876953125,-0.8182992935180664,-1.3998401165008545,2.809819221496582
1672908328447389400,4.158389404296875,-0.9463987350463867,-1.4883618354797363,3.033928155899048
1672908328457040000,4.168039794921875,-1.5474138259887695,-1.1945362091064453,1.973615288734436
1672908328466690600,4.177690673828125,-1.6925992965698242,-0.8310045599937439,0.37020277976989746
1672908328476341000,4.187341064453125,-1.100062370300293,-1.0595059394836426,-2.845334053039551
1672908328485991700,4.19699169921875,0.48155784606933594,-1.1057394742965698,-6.351076602935791
1672908328495642000,4.20664208984375,1.2801055908203125,-0.5969629883766174,-7.197207450866699
1672908328505292800,4.216292724609375,1.5821514129638672,-0.03763088583946228,-4.017453193664551
1672908328514943200,4.225943115234375,1.89105224609375,0.10912741720676422,-2.2933738231658936
1672908328524594000,4.235593994140625,1.2840814590454102,-0.03765091300010681,-2.019782781600952
1672908328534244400,4.245244384765625,0.47635459899902344,0.10762770473957062,-2.5902833938598633
1672908328543895000,4.25489501953125,-0.08190059661865234,0.7015901803970337,-2.0215108394622803
1672908328553545500,4.26454541015625,-0.43941688537597656,0.9741032719612122,-2.449460029602051
1672908328563196200,4.274196044921875,0.10705089569091797,0.9338127970695496,-3.9779293537139893
1672908328572846600,4.2838466796875,0.7604026794433594,0.8935796022415161,-4.436557292938232
1672908328582497300,4.293497314453125,1.5984277725219727,0.8067814707756042,-3.4111897945404053
1672908328592147700,4.303147705078125,1.3208026885986328,0.6997482776641846,-0.7359834313392639
1672908328601798100,4.312798095703125,1.1234912872314453,0.5239864587783813,2.027078866958618
1672908328611448800,4.32244873046875,-0.37601375579833984,0.376190185546875,3.6621060371398926
1672908328621099500,4.332099609375,-1.2244997024536133,-0.8130283355712891,3.497244358062744
1672908328630750000,4.34175,-0.8893585205078125,-1.7766859531402588,3.3414454460144043
1672908328640400400,4.351400390625,-0.7670421600341797,-1.8016035556793213,3.8184216022491455
1672908328650051000,4.361051025390625,-0.2543659210205078,-1.5386369228363037,4.022302627563477
1672908328659701500,4.370701416015625,0.7142410278320312,-1.1078976392745972,4.2638397216796875
1672908328669352200,4.380352294921875,0.6538820266723633,-0.6609892845153809,4.610805511474609
1672908328679002600,4.390002685546875,0.3011178970336914,-0.5014028549194336,3.816617488861084
1672908328688653300,4.3996533203125,-0.44553375244140625,-0.4306914210319519,3.6770949363708496
1672908328698303700,4.4093037109375,-1.7118797302246094,-0.6468669176101685,4.175706386566162
1672908328707954400,4.418954345703125,-2.6601667404174805,-0.8921825885772705,3.5941948890686035
1672908328717604900,4.42860498046875,-3.4373831748962402,-1.0858664512634277,2.8084816932678223
1672908328727255600,4.438255615234375,-3.706700325012207,-1.3619153499603271,1.89011549949646
1672908328736906000,4.447906005859375,-2.7979888916015625,-1.5005499124526978,0.7066197991371155
1672908328746556700,4.457556640625,-1.6441478729248047,-1.6849195957183838,-0.7992209196090698
1672908328756207000,4.46720703125,-3.685398578643799,-1.6944396495819092,-1.8706154823303223
1672908328765857800,4.47685791015625,-4.654720783233643,-2.132415533065796,-4.240118026733398
1672908328775508200,4.48650830078125,-0.36898231506347656,-2.5706794261932373,-7.024444580078125
1672908328785159000,4.496158935546875,5.189197540283203,-2.766552448272705,-8.798341751098633
1672908328794809300,4.505809326171875,6.2279510498046875,-2.2079248428344727,-8.256674766540527
1672908328804460000,4.5154599609375,5.254766464233398,-0.31936773657798767,-6.070044040679932
1672908328814110500,4.5251103515625,1.9460201263427734,1.586969017982483,-2.8566293716430664
1672908328823761200,4.53476123046875,-0.1801776885986328,2.155205249786377,-1.921906590461731
1672908328833411600,4.54441162109375,-1.5167608261108398,1.1621630191802979,-3.2987921237945557
1672908328843062300,4.554062255859375,-1.6362724304199219,0.29670652747154236,-4.357716083526611
1672908328852712700,4.563712646484375,-0.3213348388671875,0.2633324861526489,-3.8784708976745605
1672908328862363400,4.57336328125,0.4289064407348633,0.5716498494148254,-1.643437147140503
1672908328872013800,4.583013916015625,0.7523641586303711,0.30811914801597595,-0.7263700366020203
1672908328881664500,4.59266455078125,0.6752233505249023,-0.35289856791496277,-1.0148701667785645
1672908328891315000,4.60231494140625,0.10329341888427734,-0.7532401084899902,-0.5522943735122681
1672908328900965600,4.611965576171875,-0.5970935821533203,-0.7314565181732178,0.5116751790046692
1672908328910616000,4.621615966796875,-0.5402078628540039,-0.7192236185073853,1.175060749053955
1672908328920266800,4.631266845703125,-0.02233409881591797,-0.5686336159706116,1.5950812101364136
1672908328929917200,4.640917236328125,0.2815065383911133,-0.3223346471786499,1.8992805480957031
1672908328939567900,4.65056787109375,0.43375587463378906,0.1310427486896515,2.1701467037200928
1672908328949218300,4.66021826171875,0.5514593124389648,0.7564139366149902,2.3574986457824707
1672908328958869000,4.669868896484375,0.2285175323486328,0.781237006187439,1.807097315788269
1672908328968519400,4.67951953125,-0.18518447875976562,0.5538284778594971,1.2907434701919556
1672908328978169900,4.689169921875,-0.29026031494140625,0.21405768394470215,1.5483648777008057
1672908328987820500,4.698820556640625,-0.2850933074951172,-0.1229088306427002,1.6655441522598267
1672908328997471200,4.70847119140625,-0.3834085464477539,-0.08622604608535767,0.8966286182403564
1672908329007121700,4.71812158203125,0.4921112060546875,0.20404696464538574,0.04204249382019043
1672908329016772000,4.727772216796875,0.6285734176635742,0.31712669134140015,1.5716183185577393
1672908329026422800,4.7374228515625,0.8681669235229492,-0.24905255436897278,3.2452845573425293
1672908329036073500,4.747073486328125,0.13232135772705078,-0.8585168123245239,5.27389669418335
1672908329045724000,4.756723876953125,-1.028696060180664,-1.3688855171203613,5.163174629211426
1672908329055374300,4.766374267578125,-1.731346607208252,-1.838221549987793,4.230684280395508
1672908329065025000,4.77602490234375,-1.2570247650146484,-2.452101945877075,3.245513916015625
1672908329074675700,4.78567578125,-0.24047374725341797,-2.772686004638672,2.5532402992248535
1672908329084326100,4.795326171875,0.9146175384521484,-2.2870309352874756,1.8925718069076538
1672908329093976600,4.8049765625,0.6191797256469727,-2.089668035507202,2.390686273574829
1672908329103627300,4.814627197265625,-0.07292556762695312,-2.420473098754883,1.8842047452926636
1672908329113278000,4.82427783203125,-0.3978862762451172,-2.4260823726654053,-0.2116439938545227
1672908329122928400,4.833928466796875,0.37874698638916016,-2.257021188735962,-1.2862391471862793
1672908329132578800,4.843578857421875,-1.4837532043457031,-1.9413715600967407,2.8422274589538574
1672908329142229500,4.8532294921875,-1.406081199645996,-2.3278768062591553,3.0014185905456543
1672908329151880000,4.8628798828125,-1.501291275024414,-2.522768497467041,2.7808427810668945
1672908329161530600,4.872530517578125,-1.9328651428222656,-2.912997245788574,2.457214832305908
1672908329171181000,4.88218115234375,-2.0862016677856445,-3.373854160308838,1.78716242313385
1672908329180831700,4.891831787109375,-2.236863613128662,-3.5497398376464844,1.073014497756958
1672908329190482200,4.901482177734375,0.4422264099121094,-2.9347009658813477,-1.2632145881652832
1672908329200132900,4.9111328125,2.7081518173217773,-2.74568772315979,-4.146054744720459
1672908329209783300,4.920783203125,2.545583724975586,-2.123525857925415,-3.388089895248413
1672908329219434000,4.93043408203125,1.8491506576538086,-1.662268877029419,-3.885193109512329
1672908329229084400,4.94008447265625,1.7163190841674805,-1.3958923816680908,-3.6423797607421875
1672908329238735000,4.949735107421875,0.4300518035888672,-1.5449597835540771,-2.9085726737976074
1672908329248385500,4.959385498046875,-0.7537612915039062,-1.623218059539795,-2.8015217781066895
1672908329258036200,4.9690361328125,-1.014242172241211,-0.910301685333252,-3.178252935409546
1672908329267686700,4.978686767578125,-0.8029499053955078,-1.0906226634979248,-3.0333523750305176
1672908329277337300,4.98833740234375,-0.02724456787109375,-0.8247218132019043,-1.072052001953125
1672908329286987800,4.99798779296875,1.5520782470703125,-0.44198790192604065,0.21825683116912842
1672908329296638500,5.007638427734375,1.6673460006713867,-1.0661628246307373,-0.04640376567840576
1672908329306289000,5.017288818359375,1.6285514831542969,-0.9584053754806519,-1.314839482307434
1672908329315939600,5.026939697265625,1.0462703704833984,-0.8086363077163696,-0.9228218197822571
1672908329325590000,5.036590087890625,-0.27845001220703125,-0.9126182794570923,-0.5710152387619019
1672908329335240700,5.04624072265625,-0.9728555679321289,-0.9454707503318787,-0.24462085962295532
1672908329344891100,5.05589111328125,-0.6791553497314453,-1.7378379106521606,-1.0945910215377808
1672908329354541800,5.065541748046875,0.010783195495605469,-1.5270434617996216,-0.6802358627319336
1672908329364192300,5.075192138671875,0.1734638214111328,-1.2393394708633423,0.3316093683242798
1672908329373843000,5.084843017578125,0.18106651306152344,-1.293247103691101,0.7484408617019653
1672908329383493400,5.094493408203125,0.31455516815185547,-1.4137119054794312,-0.9710330963134766
1672908329393144000,5.10414404296875,0.1919546127319336,-0.8970520496368408,0.7647417783737183
1672908329402794500,5.11379443359375,0.5563945770263672,-0.308438777923584,3.0096068382263184
1672908329412445200,5.123445068359375,0.7004413604736328,-0.8364605903625488,3.141268730163574
1672908329422095600,5.133095703125,-1.2173280715942383,-1.1033899784088135,4.998023986816406
1672908329431746300,5.142746337890625,-3.093982696533203,-2.700279474258423,5.5952863693237305
1672908329441396700,5.152396728515625,-1.1407899856567383,-2.925715923309326,4.844675540924072
1672908329451047400,5.16204736328125,0.3453187942504883,-2.820721387863159,4.32924222946167
1672908329460697900,5.17169775390625,-0.12109375,-2.999713182449341,3.926896572113037
1672908329470348500,5.1813486328125,-1.524571418762207,-3.3265721797943115,3.942478656768799
1672908329479999000,5.1909990234375,-2.995027542114258,-3.4526920318603516,3.795788288116455
1672908329489649700,5.200649658203125,-3.9460220336914062,-3.785153388977051,3.1110682487487793
1672908329499300000,5.210300048828125,-5.453707695007324,-4.115399360656738,2.5564088821411133
1672908329508950800,5.21995068359375,-4.964845180511475,-4.145471572875977,1.9050015211105347
1672908329518601200,5.229601318359375,-4.5189104080200195,-4.078475475311279,2.0654959678649902
1672908329528252000,5.239251953125,-4.002493858337402,-3.920701026916504,1.8639299869537354
1672908329537902300,5.24890234375,-1.1325044631958008,-3.784884214401245,-1.1805392503738403
1672908329547553000,5.258552978515625,5.921889305114746,-4.157029628753662,-5.470201015472412
1672908329557203500,5.268203369140625,15.17663288116455,-2.9196701049804688,-9.06605052947998
1672908329566854100,5.277854248046875,14.102601051330566,-0.6372745633125305,-6.208768367767334
1672908329576504600,5.287504638671875,5.950586318969727,-0.46858519315719604,-1.8148388862609863
1672908329586155300,5.2971552734375,-0.47721099853515625,-1.387675404548645,-2.5259668827056885
1672908329595805700,5.3068056640625,-3.091970443725586,-3.9595510959625244,-1.853193759918213
1672908329605456400,5.316456298828125,-5.22279167175293,-3.6358859539031982,0.6405264139175415
1672908329615107000,5.326107177734375,-5.229740142822266,-2.2238924503326416,-0.11226928234100342
1672908329624757500,5.335757568359375,-3.665783405303955,-1.2863606214523315,-0.7963038086891174
1672908329634408000,5.345407958984375,-1.5377492904663086,-1.3009580373764038,-3.268528461456299
1672908329644058600,5.35505859375,-0.8086881637573242,-0.4905535578727722,-5.795864105224609
1672908329653709300,5.364709228515625,1.0705499649047852,0.1437656283378601,-6.407027244567871
1672908329663359700,5.37435986328125,2.3224267959594727,-0.2319546341896057,-5.381264686584473
1672908329673010200,5.38401025390625,2.091503143310547,-0.4016530513763428,-5.511876106262207
1672908329682660900,5.393660888671875,0.11154365539550781,0.13841602206230164,-2.519458770751953
1672908329692311600,5.4033115234375,0.12096309661865234,0.6599624156951904,-0.09724882245063782
1672908329701962000,5.4129619140625,-0.7417802810668945,-0.6131678223609924,-0.47996002435684204
1672908329711612400,5.4226123046875,-0.6868143081665039,-0.32519015669822693,-2.042818307876587
1672908329721263000,5.43226318359375,-0.39375972747802734,-0.5052546262741089,-4.409204006195068
1672908329730913800,5.441913818359375,0.37015342712402344,-0.35369372367858887,-4.511169910430908
1672908329740564200,5.451564208984375,0.920201301574707,0.15121546387672424,-2.7751359939575195
1672908329750214700,5.461214599609375,1.5649490356445312,0.7646164894104004,-1.652322769165039
1672908329759865300,5.470865234375,1.5205726623535156,1.0725256204605103,-2.40799880027771
1672908329769516000,5.48051611328125,0.3421211242675781,0.5702303051948547,-1.5200450420379639
1672908329779166500,5.49016650390625,0.016693115234375,0.260872483253479,-1.1848785877227783
1672908329788817200,5.499817138671875,-0.4568796157836914,0.2195603847503662,-0.9227493405342102
1672908329798467600,5.509467529296875,-0.0039272308349609375,-0.09777489304542542,0.19277602434158325
1672908329808118300,5.5191181640625,0.2832374572753906,-0.21185991168022156,0.11173069477081299
1672908329817768700,5.528768798828125,0.7206687927246094,-0.3938056230545044,-1.312768816947937
1672908329827419400,5.53841943359375,0.6010332107543945,-1.0345606803894043,-2.139645576477051
1672908329837069800,5.54806982421875,1.3283929824829102,-0.723351240158081,-1.8680063486099243
1672908329846720500,5.557720458984375,1.722982406616211,0.2493036687374115,-0.9078212976455688
1672908329856371000,5.567370849609375,1.7602453231811523,0.572368860244751,0.5122878551483154
1672908329866021600,5.577021728515625,0.6487646102905273,0.4843609929084778,1.8310601711273193
1672908329875672000,5.586672119140625,-0.5278406143188477,-0.6597039699554443,2.320669174194336
1672908329885322800,5.59632275390625,-2.0683131217956543,-2.105660915374756,2.627570152282715
1672908329894973200,5.60597314453125,-1.718465805053711,-2.369237184524536,2.347484588623047
1672908329904623900,5.615623779296875,-0.8888425827026367,-2.269777774810791,1.4260077476501465
1672908329914274300,5.6252744140625,-0.5817461013793945,-2.0647757053375244,1.1189966201782227
1672908329923925000,5.634925048828125,-0.8947114944458008,-1.5074435472488403,1.722159504890442
1672908329933575400,5.644575439453125,0.047768592834472656,-1.1876386404037476,0.9401473999023438
1672908329943226000,5.65422607421875,0.5638980865478516,-1.5577306747436523,0.18044769763946533
1672908329952876500,5.66387646484375,0.7479057312011719,-1.622780442237854,0.3420867323875427
1672908329962527200,5.67352734375,0.16352272033691406,-1.5888431072235107,1.0404585599899292
1672908329972177700,5.683177734375,0.05858802795410156,-2.2443978786468506,1.0843859910964966
1672908329981828400,5.692828369140625,-0.9254388809204102,-2.72237491607666,1.9731489419937134
1672908329991478800,5.702478759765625,-1.6112194061279297,-3.1126129627227783,1.544303059577942
1672908330001129500,5.71212939453125,-2.6104984283447266,-2.807154655456543,1.392351508140564
1672908330010780000,5.72177978515625,-2.083806037902832,-1.914952039718628,0.1874973177909851
1672908330020430600,5.7314306640625,-0.8855743408203125,-1.103779673576355,-1.5701971054077148
1672908330030081000,5.7410810546875,0.32792186737060547,-0.8389272093772888,-2.9182372093200684
1672908330039731700,5.750731689453125,1.1036205291748047,-0.7917612791061401,-2.907777786254883
1672908330049382100,5.760382080078125,1.419114112854004,-0.962330162525177,-2.5935633182525635
1672908330059032800,5.77003271484375,0.45904541015625,-1.2592931985855103,-1.6351282596588135
1672908330068683300,5.779683349609375,-0.42349720001220703,-1.7447093725204468,-2.012467622756958
1672908330078334000,5.789333984375,-1.7156028747558594,-1.5758763551712036,-2.2048046588897705
1672908330087984400,5.798984375,-1.5830211639404297,-1.016687273979187,-2.194730043411255
1672908330097635000,5.808635009765625,-1.190342903137207,-1.0114774703979492,-2.8884222507476807
1672908330107285500,5.818285400390625,-0.5594186782836914,-0.8553432822227478,-3.0056190490722656
1672908330116936200,5.827936279296875,0.519317626953125,-0.8220424652099609,-3.6475489139556885
1672908330126586600,5.837586669921875,2.044567108154297,-1.1640366315841675,-4.632891654968262
1672908330136237300,5.8472373046875,2.61572265625,-0.8444020748138428,-5.595396995544434
1672908330145887700,5.8568876953125,2.6295785903930664,0.02076423168182373,-5.892722129821777
1672908330155538400,5.866538330078125,2.448518753051758,0.733048141002655,-5.702838897705078
1672908330165188900,5.87618896484375,0.8787431716918945,0.591230571269989,-3.6694345474243164
1672908330174839600,5.885839599609375,-0.9163827896118164,0.8655983209609985,-0.8243985772132874
1672908330184490000,5.895489990234375,-1.1052989959716797,0.9045683145523071,-0.06550854444503784
1672908330194140700,5.905140625,-0.5879421234130859,0.29640305042266846,-0.23326829075813293
1672908330203791000,5.914791015625,-0.14870834350585938,-0.6087067723274231,-1.3171063661575317
1672908330213441800,5.92444189453125,0.3018636703491211,-0.5106161832809448,-0.1962134838104248
1672908330223092200,5.93409228515625,0.4812469482421875,-0.11758726835250854,0.7764962315559387
1672908330232743000,5.943742919921875,0.42986392974853516,0.08861029893159866,0.893129289150238
1672908330242393300,5.953393310546875,-0.19778060913085938,-0.4165583848953247,0.9156906008720398
1672908330252044000,5.9630439453125,-0.9603023529052734,-0.3604351878166199,1.166526436805725
1672908330261694500,5.972694580078125,-0.7178688049316406,-0.41276341676712036,0.7203293442726135
1672908330271345200,5.98234521484375,-0.6336154937744141,-1.2133477926254272,1.1112232208251953
1672908330280995600,5.99199560546875,-0.49237060546875,-0.3209218680858612,1.1081032752990723
1672908330290646300,6.001646240234375,-0.7188663482666016,-1.7097563743591309,-0.31755632162094116
1672908330300297000,6.011296875,-1.125788688659668,-0.551286518573761,0.625619113445282
1672908330309947400,6.020947509765625,-0.5962905883789062,-0.6645456552505493,1.309282898902893
1672908330319597800,6.030597900390625,-0.27216434478759766,0.5607215166091919,1.0366947650909424
1672908330329248500,6.04024853515625,0.22278118133544922,0.5458947420120239,0.20238131284713745
1672908330338899200,6.049899169921875,0.02426624298095703,-0.1134788990020752,-0.21174852550029755
1672908330348549600,6.059549560546875,-0.5835628509521484,-1.667580246925354,-1.9946613311767578
1672908330358200000,6.069199951171875,-0.6086368560791016,0.18129754066467285,-0.9897960424423218
1672908330367850800,6.078850830078125,0.5078630447387695,0.8541873693466187,-1.6281744241714478
1672908330377501400,6.08850146484375,0.5468606948852539,-1.0988856554031372,-4.578864097595215
1672908330387152000,6.09815185546875,0.5028133392333984,-0.35926568508148193,-5.1804327964782715
1672908330396802600,6.107802490234375,2.2645368576049805,2.311927556991577,-4.4113688468933105
1672908330406453000,6.117452880859375,1.7386398315429688,-1.1874573230743408,-4.1394219398498535
1672908330416103700,6.127103759765625,0.3306560516357422,-1.0643073320388794,-2.548647165298462
1672908330425754000,6.136754150390625,0.35718345642089844,-1.4585793018341064,-1.105656385421753
1672908330435404800,6.14640478515625,0.9400835037231445,0.0008738040924072266,0.6494245529174805
1672908330445055200,6.15605517578125,0.9878120422363281,2.529078483581543,1.8378113508224487
1672908330454706000,6.165705810546875,0.3648347854614258,1.7374427318572998,0.5223478674888611
1672908330464356400,6.1753564453125,-0.17332172393798828,0.9276455640792847,-0.16043592989444733
1672908330474007000,6.185007080078125,-0.7330255508422852,-0.4303394556045532,-0.6700189709663391
1672908330483657500,6.194657470703125,-1.880058765411377,-4.943836688995361,-3.3430521488189697
1672908330493308200,6.20430810546875,-1.9468002319335938,1.8683358430862427,1.0280009508132935
1672908330502958600,6.21395849609375,0.971923828125,3.852037191390991,-0.1391620934009552
1672908330512609300,6.223609375,1.0445613861083984,-1.1958262920379639,-3.497027635574341
1672908330522259700,6.233259765625,-0.905634880065918,-1.6396878957748413,-3.244807720184326
1672908330531910400,6.242910400390625,0.11941051483154297,6.436276435852051,0.5618445873260498
1672908330541560800,6.252560791015625,1.2199325561523438,3.2104244232177734,-1.3196847438812256
1672908330551211500,6.26221142578125,-1.4532461166381836,-1.6791220903396606,-3.4768855571746826
1672908330560862000,6.271862060546875,-3.2516417503356934,-4.206535339355469,-5.0964837074279785
1672908330570512600,6.2815126953125,-1.498769760131836,-4.119516849517822,-4.304443836212158
1672908330580163000,6.2911630859375,0.15206050872802734,-0.8687901496887207,-4.316741943359375
1672908330589813800,6.300813720703125,0.8996191024780273,2.9923624992370605,-4.514377593994141
1672908330599464200,6.310464111328125,-0.49710655212402344,2.4168472290039062,-5.0797319412231445
1672908330609115000,6.320114990234375,-1.1110172271728516,-1.6540815830230713,-5.329340934753418
1672908330618765600,6.329765625,-0.5799341201782227,-2.9888017177581787,-2.521294593811035
1672908330628416000,6.339416015625,-0.24877357482910156,-0.35070377588272095,0.02037951350212097
1672908330638066400,6.34906640625,1.3118267059326172,2.3527626991271973,2.8069140911102295
1672908330647717000,6.358717041015625,2.0409975051879883,4.847972869873047,3.695554733276367
1672908330657367800,6.368367919921875,2.0965652465820312,5.743736267089844,3.624255657196045
1672908330667018200,6.378018310546875,1.0002555847167969,6.184147834777832,3.768017292022705
1672908330676669000,6.3876689453125,0.24244308471679688,2.2458386421203613,0.08412063121795654
1672908330686319400,6.3973193359375,-0.5317592620849609,-1.4098016023635864,-2.8761210441589355
1672908330695970000,6.406969970703125,-1.4410123825073242,-1.5153589248657227,-3.4829139709472656
1672908330705620500,6.416620361328125,-1.7536611557006836,-4.532596111297607,-5.584375381469727
1672908330715271200,6.426271240234375,-0.26816368103027344,-1.3420994281768799,-5.458774089813232
1672908330724921600,6.435921630859375,2.2239198684692383,3.4861998558044434,-2.1474900245666504
1672908330734572300,6.445572265625,2.4613218307495117,-2.2076783180236816,-3.9141273498535156
1672908330744222700,6.45522265625,-0.2120523452758789,-7.766969203948975,-2.321816921234131
1672908330753873400,6.464873291015625,-2.741222381591797,-4.239510536193848,-0.06645315885543823
1672908330763523800,6.47452392578125,-1.693171501159668,2.0063915252685547,3.9238367080688477
1672908330773174500,6.484174560546875,0.9454927444458008,10.928899765014648,6.197063446044922
1672908330782825000,6.493824951171875,2.4363527297973633,1.8708202838897705,1.2192559242248535
1672908330792475600,6.5034755859375,0.7124691009521484,-2.6132612228393555,0.6997275352478027
1672908330802126000,6.5131259765625,-0.4030628204345703,2.2997310161590576,1.0553593635559082
1672908330811776800,6.52277685546875,-0.2247762680053711,5.289133071899414,0.5872361063957214
1672908330821427200,6.53242724609375,0.9502639770507812,3.973357915878296,1.094559669494629
1672908330831078000,6.542077880859375,1.808089256286621,2.1364386081695557,-0.7651308178901672
1672908330840728300,6.551728271484375,0.5417747497558594,1.7577908039093018,-2.2838220596313477
1672908330850379000,6.56137890625,-0.9226179122924805,-0.9826115369796753,-3.3387558460235596
1672908330860029400,6.571029541015625,-1.8659229278564453,-1.1237499713897705,-1.1558703184127808
1672908330869680000,6.58068017578125,-2.3081750869750977,-3.1314425468444824,-2.7601466178894043
1672908330879330600,6.59033056640625,-1.9036784172058105,0.6171407699584961,-2.304847002029419
1672908330888981200,6.599981201171875,-0.6828165054321289,1.869070291519165,-1.5723905563354492
1672908330898631700,6.609631591796875,-0.0787200927734375,-2.4208288192749023,-1.242002010345459
1672908330908282400,6.619282470703125,3.5585451126098633,-1.7679392099380493,0.10303628444671631
1672908330917932800,6.628932861328125,4.433065414428711,0.41598403453826904,0.1917438805103302
1672908330927583500,6.63858349609375,2.4404401779174805,0.4747059941291809,-0.6116454005241394
1672908330937234000,6.64823388671875,0.46884727478027344,-0.7082664370536804,-0.8619752526283264
1672908330946884600,6.657884521484375,-1.220005989074707,-1.0715665817260742,-0.7808210849761963
1672908330956535000,6.66753515625,-1.2969560623168945,-0.9556885957717896,-0.08846229314804077
1672908330966185700,6.677185791015625,-0.43521976470947266,-0.6219853162765503,0.20552125573158264
1672908330975836200,6.686836181640625,0.22586345672607422,-0.9092735648155212,-0.05533379316329956
1672908330985486800,6.69648681640625,0.21404266357421875,-1.4950040578842163,0.3338198661804199
1672908330995137500,6.706137451171875,0.044625282287597656,-1.3828363418579102,0.24310538172721863
1672908331004788000,6.7157880859375,0.8647947311401367,-0.8665026426315308,-0.007332056760787964
1672908331014438700,6.725438720703125,0.7957115173339844,-1.3074785470962524,-0.22583210468292236
1672908331024089000,6.735089111328125,0.13883113861083984,-1.0265213251113892,-0.752662181854248
1672908331033739800,6.74473974609375,-0.5377492904663086,-1.3516967296600342,-1.310781717300415
1672908331043390200,6.75439013671875,-1.8145332336425781,-1.5092082023620605,-0.3350491225719452
1672908331053041000,6.764041015625,-2.3028225898742676,-0.7056993246078491,0.47384652495384216
1672908331062691300,6.77369140625,-2.2276082038879395,0.47454625368118286,-0.1625785529613495
1672908331072342000,6.783342041015625,-2.626276969909668,0.8594371676445007,-0.6412258148193359
1672908331081992400,6.792992431640625,-2.0830941200256348,0.97819584608078,-0.5308696031570435
1672908331091643100,6.80264306640625,-2.0745162963867188,0.4281891882419586,1.1235135793685913
1672908331101293600,6.81229345703125,-0.08249664306640625,1.5587981939315796,1.5642523765563965
1672908331110944300,6.8219443359375,0.28771114349365234,0.809224009513855,0.11970072984695435
1672908331120594700,6.8315947265625,0.3388328552246094,1.1600959300994873,-0.03621843457221985
1672908331130245400,6.841245361328125,1.5575084686279297,1.5327115058898926,-0.5879520177841187
1672908331139895800,6.850895751953125,1.7757539749145508,1.3606165647506714,-0.768688440322876
1672908331149546500,6.86054638671875,0.1312408447265625,0.1756945550441742,-2.0386404991149902
1672908331159197000,6.870197021484375,-1.2773628234863281,-0.5221378803253174,-2.0780792236328125
1672908331168847600,6.87984765625,-1.8106451034545898,0.7325470447540283,-1.3793373107910156
1672908331178498000,6.889498046875,-1.5256166458129883,-0.7453052401542664,-1.6270285844802856
1672908331188148700,6.899148681640625,-1.5660295486450195,-0.797785758972168,-1.4415186643600464
1672908331197799200,6.908799072265625,-0.7992210388183594,0.0045245736837387085,-0.840277910232544
1672908331207449900,6.918449951171875,1.150599479675293,0.3820499777793884,0.8070878982543945
1672908331217100300,6.928100341796875,1.935373306274414,0.5163643956184387,0.480000376701355
1672908331226751000,6.9377509765625,1.8707542419433594,0.17152591049671173,0.5838460922241211
1672908331236401700,6.947401611328125,1.4653615951538086,-0.3943646550178528,0.2809686064720154
1672908331246052000,6.957052001953125,0.39516258239746094,-0.655392050743103,-0.05755722522735596
1672908331255702500,6.96670263671875,0.0799570083618164,1.1874487400054932,0.6096831560134888
1672908331265353200,6.976353271484375,1.1768550872802734,0.8624008893966675,0.7829055786132812
1672908331275004000,6.98600390625,1.1679763793945312,-0.07427970319986343,0.11801522970199585
1672908331284654300,6.995654296875,0.1585836410522461,-0.21560350060462952,0.09797361493110657
1672908331294305000,7.005304931640625,-0.3827667236328125,0.6063875555992126,0.4599687159061432
1672908331303955500,7.01495556640625,-0.677393913269043,1.2264931201934814,-0.6043530702590942
1672908331313606100,7.024606201171875,-0.6511545181274414,-1.6579563617706299,0.10350242257118225
1672908331323256600,7.034256591796875,-0.6195774078369141,-0.7627591490745544,-0.2519548535346985
1672908331332907300,7.0439072265625,-0.4699563980102539,0.17406980693340302,-0.9269177913665771
1672908331342557700,7.0535576171875,1.0348320007324219,-1.0348669290542603,-0.6355171203613281
1672908331352208400,7.06320849609375,0.8117074966430664,-0.5820751786231995,-0.7846035361289978
1672908331361858800,7.07285888671875,-0.2684211730957031,0.29434558749198914,-0.720674991607666
1672908331371509500,7.082509521484375,-0.6626338958740234,0.23594124615192413,-0.8011987209320068
1672908331381160000,7.092159912109375,-0.30297374725341797,0.2200266718864441,-1.7505080699920654
1672908331390810600,7.101810546875,-0.531458854675293,-0.43451595306396484,-1.86627197265625
1672908331400461000,7.1114609375,-0.5922641754150391,-0.6225765347480774,-1.271998405456543
1672908331410111700,7.12111181640625,0.027286529541015625,1.221519947052002,0.3496097922325134
1672908331419762200,7.13076220703125,0.9507303237915039,-0.2696884274482727,0.27800530195236206
1672908331429412900,7.140412841796875,0.29853248596191406,-0.8494447469711304,-0.7176117897033691
1672908331439063300,7.150063232421875,-0.5261764526367188,0.6520624160766602,-0.9623554944992065
1672908331448714000,7.1597138671875,-0.9834747314453125,1.682551383972168,-0.8739320635795593
1672908331458364400,7.169364501953125,-0.6393451690673828,0.26506656408309937,-0.9134144186973572
1672908331468015000,7.17901513671875,-0.1668243408203125,0.3174135982990265,-0.6433654427528381
1672908331477665500,7.18866552734375,0.33298492431640625,0.38112467527389526,0.3513619601726532
1672908331487316200,7.198316162109375,0.27753543853759766,-0.21419420838356018,0.25112277269363403
1672908331496967000,7.207966796875,-0.19521141052246094,0.8756088018417358,-0.008259505033493042
1672908331506617300,7.217617431640625,0.30291748046875,1.4010448455810547,1.474515676498413
1672908331516267800,7.227267822265625,1.903289794921875,0.5524830222129822,1.3048288822174072
1672908331525918500,7.23691845703125,2.0355758666992188,0.7875423431396484,0.06291446089744568
1672908331535569200,7.246569091796875,1.237884521484375,0.7290926575660706,-0.6935684084892273
1672908331545219600,7.256219482421875,0.4706430435180664,0.10897159576416016,-0.8863910436630249
1672908331554870300,7.265870361328125,-0.0030145645141601562,-0.07889500260353088,-0.05248352885246277
1672908331564520700,7.275520751953125,-0.16466999053955078,0.5675809383392334,0.1911388635635376
1672908331574171400,7.28517138671875,-0.10776424407958984,0.13151048123836517,0.9685702323913574
1672908331583821800,7.29482177734375,0.0045070648193359375,0.7836852073669434,-0.9238239526748657
1672908331593472500,7.304472412109375,-0.20442676544189453,0.939511775970459,-0.574234664440155
1672908331603123000,7.314123046875,-0.05507087707519531,0.06628668308258057,-1.3905916213989258
1672908331612773600,7.323773681640625,-0.09495353698730469,0.3224920630455017,-1.494143009185791
1672908331622424000,7.333424072265625,-0.8360919952392578,0.7814840078353882,-2.5824930667877197
1672908331632074800,7.34307470703125,-1.0734615325927734,0.6234452128410339,-1.801666259765625
1672908331641725200,7.35272509765625,-0.635960578918457,-0.568528950214386,-0.74555504322052
1672908331651375900,7.3623759765625,-0.9529685974121094,0.5616835951805115,0.009837359189987183
1672908331661026300,7.3720263671875,-0.9060897827148438,0.9837685823440552,0.5610934495925903
1672908331670677000,7.381677001953125,0.0104217529296875,0.9280850887298584,0.6546072959899902
1672908331680327400,7.391327392578125,0.8444681167602539,0.8308099508285522,0.4967646598815918
1672908331689978000,7.40097802734375,1.0747699737548828,0.9757093191146851,0.3151136040687561
1672908331699628500,7.410628662109375,1.6529598236083984,0.8658214807510376,-0.6847480535507202
1672908331709279200,7.420279296875,0.40985679626464844,0.5841680765151978,-1.1172044277191162
1672908331718930000,7.429929931640625,-0.16901874542236328,0.28410354256629944,-2.0656375885009766
1672908331728580400,7.439580322265625,-0.3144664764404297,0.6142088770866394,-0.9706122875213623
1672908331738230800,7.449230712890625,-0.9946880340576172,0.3780478835105896,-1.402889609336853
1672908331747881500,7.458881591796875,-0.7446727752685547,0.2140456885099411,-1.2833356857299805
1672908331757532200,7.4685322265625,-0.7870464324951172,0.36491143703460693,-1.729605793952942
1672908331767182600,7.4781826171875,-0.3998250961303711,0.9035743474960327,0.2881965637207031
1672908331776833300,7.487833251953125,-0.012769699096679688,0.5965031385421753,0.3363683819770813
1672908331786483700,7.497483642578125,0.206939697265625,0.9785547256469727,0.6714087128639221
1672908331796134400,7.507134521484375,0.06820106506347656,0.8268539905548096,0.05885228514671326
1672908331805784800,7.516784912109375,0.2737388610839844,1.1467952728271484,0.6294664144515991
1672908331815435500,7.526435546875,0.11862468719482422,0.6594961881637573,1.0334845781326294
1672908331825086000,7.5360859375,0.014716148376464844,1.0265698432922363,1.5982935428619385
1672908331834736600,7.545736572265625,0.4202737808227539,0.9859541654586792,1.6394590139389038
1672908331844387000,7.555386962890625,-0.05645465850830078,0.9382767677307129,0.649259626865387
1672908331854037800,7.565037841796875,0.1629190444946289,0.7007262110710144,0.03753402829170227
1672908331863688200,7.574688232421875,0.6153049468994141,0.736365795135498,-0.08567893505096436
1672908331873339000,7.5843388671875,1.1114416122436523,0.7614635229110718,-0.05439966917037964
1672908331882989300,7.5939892578125,0.3275642395019531,0.6384639143943787,-0.48914527893066406
1672908331892640000,7.603639892578125,0.02207660675048828,0.5405406951904297,-0.08775496482849121
1672908331902290400,7.61329052734375,0.2382030487060547,0.8107547163963318,0.8641149401664734
1672908331911941000,7.622941162109375,0.024811744689941406,0.8977476954460144,0.795126736164093
1672908331921591800,7.632591796875,-0.4835987091064453,1.0523160696029663,1.2504303455352783
1672908331931242200,7.6422421875,-0.41448116302490234,0.7408900856971741,0.2854123115539551
1672908331940893000,7.651892822265625,-0.4480876922607422,0.7269566655158997,0.2547922134399414
1672908331950543400,7.66154345703125,0.023909568786621094,0.6565555334091187,0.6934678554534912
1672908331960194000,7.671194091796875,-0.20112323760986328,0.5546475648880005,0.24696651101112366
1672908331969844500,7.680844482421875,-0.17486286163330078,0.4596625566482544,-0.5865090489387512
1672908331979495200,7.6904951171875,-0.4206409454345703,0.6712868809700012,-0.6485216617584229
1672908331989145600,7.7001455078125,-0.5967998504638672,0.49012553691864014,-0.6784735321998596
1672908331998796300,7.70979638671875,-0.3669137954711914,0.3692317605018616,-0.4532563090324402
1672908332008446700,7.71944677734375,-0.2972593307495117,0.04653662443161011,-0.4594762921333313
1672908332018097400,7.729097412109375,-0.1840829849243164,0.34785348176956177,-0.2789175510406494
1672908332027747800,7.738747802734375,-0.04693317413330078,0.3763032555580139,0.3380528688430786
1672908332037398500,7.7483984375,-0.05833148956298828,-0.16814103722572327,0.24221879243850708
1672908332047049000,7.758049072265625,-0.5891246795654297,-0.19677716493606567,-0.07250124216079712
1672908332056699600,7.76769970703125,-0.39548206329345703,-0.019296258687973022,-0.4811331331729889
1672908332066350000,7.77735009765625,-0.3427267074584961,0.2044152319431305,-0.813568115234375
1672908332076000800,7.787000732421875,-0.3954000473022461,0.39683961868286133,-0.568808913230896
1672908332085651500,7.7966513671875,0.6148929595947266,0.009843498468399048,-0.3919352889060974
1672908332095302000,7.806302001953125,0.6889276504516602,-0.01663827896118164,0.09619465470314026
1672908332104952600,7.81595263671875,0.28037261962890625,0.24301433563232422,0.16869625449180603
1672908332114603000,7.82560302734375,0.4846477508544922,0.30604398250579834,0.3056453466415405
1672908332124253700,7.835253662109375,0.015161514282226562,0.1404024362564087,0.4299588203430176
1672908332133904100,7.844904052734375,-0.5226449966430664,-0.01590418815612793,0.5032457709312439
1672908332143554800,7.854554931640625,0.30973339080810547,0.1837775856256485,-0.04210615158081055
1672908332153205200,7.864205322265625,-0.09875869750976562,-0.38502416014671326,-0.26715409755706787
1672908332162856000,7.87385595703125,0.2769584655761719,-0.13845840096473694,0.7417458295822144
1672908332172506400,7.88350634765625,0.39812469482421875,0.0025029033422470093,1.084150791168213
1672908332182157000,7.893156982421875,0.3302316665649414,0.05207376182079315,0.9176706671714783
1672908332191807500,7.902807373046875,0.3485136032104492,0.35845714807510376,0.6647886633872986
1672908332201458200,7.912458251953125,0.006237983703613281,-0.17226991057395935,-0.08722329139709473
1672908332211108600,7.922108642578125,-0.5672082901000977,-0.424909383058548,-0.10051628947257996
1672908332220759300,7.93175927734375,-0.9558143615722656,-0.5218997597694397,0.2739991545677185
1672908332230410000,7.941409912109375,-0.5001382827758789,-0.23541487753391266,1.2065331935882568
1672908332240060400,7.951060302734375,-0.28847789764404297,0.2068587839603424,0.7867444157600403
1672908332249710800,7.9607109375,0.6629552841186523,0.522705078125,2.141355514526367
1672908332259361500,7.970361572265625,1.9747819900512695,0.2796834111213684,1.5385267734527588
1672908332269012200,7.98001220703125,1.953317642211914,-0.41574716567993164,0.7659174799919128
1672908332278662700,7.98966259765625,0.9025440216064453,-0.3422156870365143,-0.03662768006324768
1672908332288313300,7.999313232421875,0.038318634033203125,0.19472052156925201,-0.9382679462432861
1672908332297963800,8.0089638671875,-0.6420164108276367,-0.07520660012960434,-1.5767180919647217
1672908332307614500,8.018614501953126,-1.607625961303711,-0.3675232529640198,-2.1515378952026367
1672908332317265000,8.028264892578125,-1.3176507949829102,-0.3693401515483856,-0.6124828457832336
1672908332326915600,8.03791552734375,-0.8469524383544922,-0.060178644955158234,0.15584984421730042
1672908332336566000,8.04756591796875,0.12917518615722656,-0.00032176822423934937,0.8194213509559631
1672908332346216700,8.057216796875,0.7279176712036133,0.1992090940475464,1.0426921844482422
1672908332355867100,8.0668671875,1.0646982192993164,0.0795312374830246,0.7683371305465698
1672908332365517800,8.076517822265625,1.2071866989135742,-0.11929083615541458,0.3895505368709564
1672908332375168300,8.086168212890625,0.7238998413085938,-0.3223367929458618,-0.14379531145095825
1672908332384819000,8.09581884765625,0.08206558227539062,-0.10545043647289276,0.1736297607421875
1672908332394469600,8.1054697265625,-0.7254362106323242,0.06632906198501587,-0.3233391344547272
1672908332404120000,8.1151201171875,-1.2254791259765625,-0.24443773925304413,-0.10674142837524414
1672908332413770800,8.124770751953125,-1.535914421081543,-0.47468507289886475,0.18840137124061584
1672908332423421200,8.134421142578125,-1.2772188186645508,-0.44577404856681824,0.5488229393959045
1672908332433071900,8.14407177734375,-0.8829202651977539,-0.2741185128688812,1.0336254835128784
1672908332442722300,8.153722412109374,-1.0150556564331055,-0.21439659595489502,1.4636012315750122
1672908332452373000,8.163373046875,-0.4399404525756836,-0.30818337202072144,2.055652379989624
1672908332462023400,8.1730234375,0.3272991180419922,0.2574675381183624,2.433314323425293
1672908332471674000,8.182674072265625,0.7918243408203125,0.5905809998512268,2.712538480758667
1672908332481324500,8.192324462890625,1.0499181747436523,0.5238933563232422,2.3702728748321533
1672908332490975200,8.201975341796874,0.6077795028686523,0.7378968596458435,1.5858687162399292
1672908332500625700,8.211625732421876,0.23607444763183594,0.5850282311439514,1.4491968154907227
1672908332510276400,8.2212763671875,-0.22542476654052734,0.16637027263641357,1.0603801012039185
1672908332519926800,8.2309267578125,-0.5066671371459961,-0.3103460669517517,1.1228079795837402
1672908332529577500,8.240577392578125,-0.7848396301269531,-0.3653450012207031,1.185752511024475
1672908332539228200,8.250228271484374,-0.8616456985473633,-0.27365243434906006,1.2859493494033813
1672908332548878600,8.259878662109376,-0.3530454635620117,-0.25655755400657654,1.8223650455474854
1672908332558529300,8.269529296875,0.2355642318725586,-0.18516330420970917,2.24430513381958
1672908332568179700,8.2791796875,0.4979114532470703,-0.16617311537265778,2.4088597297668457
1672908332577830400,8.288830322265625,0.6568193435668945,-0.27398383617401123,2.355900287628174
1672908332587480800,8.298480712890624,0.6145610809326172,-0.48204776644706726,1.975975751876831
1672908332597131500,8.308131591796876,0.471954345703125,-0.07792885601520538,1.7940915822982788
1672908332606782000,8.317781982421875,0.16961288452148438,-0.3571147322654724,1.9475568532943726
1672908332616432600,8.3274326171875,0.43155670166015625,-0.5665963888168335,1.7421904802322388
1672908332626083300,8.337083251953125,0.3393850326538086,-0.29134008288383484,1.6756759881973267
1672908332635733800,8.346733642578124,0.25945472717285156,-0.8535351753234863,1.572861671447754
1672908332645384400,8.356384521484374,0.3207588195800781,-0.1977902501821518,1.6142221689224243
1672908332655035000,8.366034912109376,0.7593898773193359,-0.45026400685310364,1.2287530899047852
1672908332664685600,8.375685546875,1.7870378494262695,-0.7145781517028809,0.2211439609527588
1672908332674336000,8.3853359375,2.409069061279297,-0.9952725172042847,-0.08008183538913727
1672908332683986700,8.394986572265625,2.414443016052246,-0.7709583044052124,0.09391164779663086
1672908332693637000,8.40463720703125,1.296285629272461,-0.26025718450546265,0.28515976667404175
1672908332703287800,8.414287841796876,-1.3399076461791992,0.4111224114894867,0.804136335849762
1672908332712938200,8.423938232421875,-2.529991626739502,-0.07898563146591187,0.4860922694206238
1672908332722589000,8.4335888671875,-2.1414012908935547,-0.11140888929367065,0.29671716690063477
1672908332732239400,8.4432392578125,-0.8202266693115234,-0.35064390301704407,-0.6463042497634888
1672908332741890000,8.45289013671875,1.0544633865356445,-0.48036497831344604,-0.5884069204330444
1672908332751540500,8.46254052734375,1.2054853439331055,0.5425319075584412,0.07835155725479126
1672908332761191200,8.472191162109375,-0.26088428497314453,0.867797315120697,0.7230676412582397
1672908332770841900,8.481841796875,-1.564518928527832,0.6074926853179932,0.7817366719245911
1672908332780492300,8.4914921875,-1.719980239868164,0.3932890295982361,0.9241997003555298
1672908332790143000,8.50114306640625,-1.704575538635254,0.2697479724884033,0.9709038138389587
1672908332799793400,8.51079345703125,-1.4923715591430664,0.26158392429351807,1.0767165422439575
1672908332809444000,8.520444091796875,-1.6473379135131836,0.28844958543777466,1.222601056098938
1672908332819094500,8.530094482421875,-1.5925216674804688,0.20990508794784546,1.1237443685531616
1672908332828745200,8.5397451171875,-0.7809019088745117,-0.13948193192481995,0.9899695515632629
1672908332838395600,8.549395751953124,-0.5251178741455078,-0.4636183977127075,1.33574640750885
1672908332848046300,8.55904638671875,-0.14745616912841797,-0.43331825733184814,0.49588024616241455
1672908332857697000,8.568697021484375,1.5511188507080078,-0.8349208831787109,-0.8575270771980286
1672908332867347500,8.578347412109375,2.8333816528320312,-1.5541841983795166,-1.1095499992370605
1672908332876998100,8.587998046875,2.2312631607055664,-1.0150408744812012,-1.2912967205047607
1672908332886648600,8.597648681640624,0.7926607131958008,-1.0369426012039185,-1.1383384466171265
1672908332896299300,8.60729931640625,-0.809626579284668,-1.4715309143066406,-0.9605878591537476
1672908332905949700,8.61694970703125,-0.817378044128418,-1.068668246269226,0.41243845224380493
1672908332915600400,8.626600341796875,0.6035680770874023,-1.6087746620178223,1.0039063692092896
1672908332925250800,8.636250732421875,1.4990596771240234,-2.437098264694214,-0.42776164412498474
1672908332934901500,8.645901611328124,1.7324771881103516,-1.3797521591186523,0.2882923483848572
1672908332944552000,8.655552001953126,0.7845230102539062,-1.3994344472885132,0.5623880624771118
1672908332954202600,8.66520263671875,0.9210529327392578,-0.6969406604766846,1.3379714488983154
1672908332963853300,8.674853271484375,1.0497655868530273,-0.511925995349884,2.0565075874328613
1672908332973503700,8.684503662109375,0.5091753005981445,-0.612866222858429,2.5303432941436768
1672908332983154400,8.694154541015624,-0.9069614410400391,-0.7729798555374146,2.188832998275757
1672908332992804900,8.703804931640626,-1.6134300231933594,-0.15608197450637817,2.5343079566955566
1672908333002455600,8.71345556640625,-2.01566219329834,-1.0592570304870605,0.9759272933006287
1672908333012106000,8.72310595703125,-1.2542648315429688,-1.964346170425415,-1.2724148035049438
1672908333021756700,8.732756591796875,-0.7670478820800781,-1.4231934547424316,-1.7206225395202637
1672908333031407000,8.742406982421874,-0.40301513671875,-0.6912686228752136,-1.9249250888824463
1672908333041057800,8.752057861328124,0.2867164611816406,-0.44434696435928345,-2.868494987487793
1672908333050708500,8.76170849609375,0.9454841613769531,-0.5729880928993225,-2.0207772254943848
1672908333060359000,8.77135888671875,0.9456815719604492,-0.3500658869743347,-1.1602702140808105
1672908333070009300,8.78100927734375,0.8147497177124023,-0.32770466804504395,-0.7588064074516296
1672908333079660000,8.790659912109374,0.9328241348266602,-0.42041707038879395,-0.8598519563674927
1672908333089310700,8.800310791015624,0.7429475784301758,-0.4047689735889435,-0.13725608587265015
1672908333098961200,8.809961181640626,0.5156154632568359,-0.41747644543647766,1.2277594804763794
1672908333108611800,8.81961181640625,-0.3543224334716797,-0.07221251726150513,1.5206944942474365
1672908333118262300,8.82926220703125,-0.7608718872070312,-0.1615670919418335,1.6006443500518799
1672908333127913000,8.838912841796875,-0.99346923828125,-0.8206060528755188,2.1469600200653076
1672908333137563400,8.8485634765625,-0.9796075820922852,-1.2120407819747925,1.9826847314834595
1672908333147214000,8.858214111328126,-0.5546979904174805,-1.062558889389038,1.5631417036056519
1672908333156864800,8.86786474609375,-0.4815940856933594,-0.9733894467353821,1.815660834312439
1672908333166515200,8.87751513671875,0.20051956176757812,-0.6122044920921326,1.4638229608535767
1672908333176165600,8.88716552734375,0.7857608795166016,-0.36362844705581665,1.0460140705108643
1672908333185816300,8.89681640625,0.48891353607177734,-0.42905229330062866,1.5486825704574585
1672908333195467000,8.906467041015626,0.042840003967285156,-0.8314040303230286,1.985460877418518
1672908333205117400,8.916117431640625,-0.21099090576171875,-0.773289144039154,1.3695966005325317
1672908333214768000,8.92576806640625,-0.782069206237793,-0.7093697190284729,1.8333419561386108
1672908333224418600,8.93541845703125,-1.048628807067871,-0.7554532289505005,1.396217942237854
1672908333234069200,8.9450693359375,-1.4648895263671875,-1.0047056674957275,1.0978718996047974
1672908333243720000,8.954719970703126,-2.439189910888672,-0.7552459239959717,1.8866983652114868
1672908333253370400,8.964370361328125,-1.0256099700927734,-0.6548125147819519,0.4509289860725403
1672908333263021000,8.97402099609375,0.8080873489379883,-1.0008729696273804,-0.4062936305999756
1672908333272671500,8.98367138671875,1.269597053527832,-0.6434752941131592,-0.5483688116073608
1672908333282322200,8.993322265625,1.1427698135375977,0.04501223564147949,0.4238884449005127
1672908333291972600,9.00297265625,0.5148906707763672,0.14013075828552246,1.1718930006027222
1672908333301623300,9.012623291015625,0.3138132095336914,-0.7369287014007568,0.6783957481384277
1672908333311273700,9.022273681640625,-0.22020816802978516,-1.1862218379974365,-0.5240070819854736
1672908333320924400,9.03192431640625,-0.37009239196777344,-0.330037385225296,0.01246786117553711
1672908333330574800,9.041574951171874,0.06027793884277344,-0.7633881568908691,-1.3980883359909058
1672908333340225500,9.0512255859375,0.4567413330078125,-1.0893858671188354,-0.5129593014717102
1672908333349876200,9.060876220703125,1.0636911392211914,-1.2378735542297363,-1.1482760906219482
1672908333359526700,9.070526611328125,0.8402929306030273,-0.3379445970058441,0.2608700394630432
1672908333369177300,9.08017724609375,0.9511957168579102,-0.2883892059326172,-1.9154984951019287
1672908333378827800,9.089827880859374,0.813690185546875,-0.3756818473339081,-1.1599496603012085
1672908333388478500,9.099478515625,0.7263679504394531,-0.30785009264945984,0.4519820809364319
1672908333398129000,9.10912890625,0.6018333435058594,-0.308849960565567,1.5970029830932617
1672908333407779600,9.118779541015625,0.38495826721191406,-0.7676924467086792,-0.009951204061508179
1672908333417430000,9.128429931640625,-0.09934616088867188,-1.0450356006622314,-1.274261713027954
1672908333427080700,9.138080810546874,0.32996463775634766,-0.6698689460754395,-1.7940731048583984
1672908333436731400,9.1477314453125,0.7562875747680664,-0.41626930236816406,-0.6126201152801514
1672908333446381800,9.1573818359375,0.43935680389404297,-0.3012235462665558,0.07520389556884766
1672908333456032500,9.167032470703125,0.41911888122558594,-0.209852397441864,-0.610039472579956
1672908333465683000,9.176682861328125,-1.2734260559082031,0.4594857692718506,1.0380570888519287
1672908333475333600,9.186333740234375,-1.987828254699707,-0.328332781791687,0.698542058467865
1672908333484984000,9.195984130859374,-0.6747579574584961,-1.5715899467468262,-2.814171314239502
1672908333494634800,9.205634765625,-0.20462322235107422,-1.3055132627487183,-2.044102907180786
1672908333504285200,9.21528515625,-0.607151985168457,-0.8731327056884766,-0.7349247932434082
1672908333513936000,9.224935791015625,0.024659156799316406,-1.0045223236083984,0.21387195587158203
1672908333523586600,9.234586669921875,0.40146636962890625,-1.463263750076294,0.9625284075737
1672908333533237000,9.244237060546874,0.7780752182006836,-1.5655717849731445,2.2266738414764404
1672908333542887700,9.2538876953125,0.0004634857177734375,-1.4653689861297607,3.909470796585083
1672908333552538000,9.2635380859375,-0.700007438659668,-1.3962225914001465,5.330681800842285
1672908333562188800,9.273188720703125,-1.576735496520996,-0.7056092023849487,5.653298377990723
1672908333571839200,9.282839111328125,-1.0743217468261719,-1.343763828277588,3.40962553024292
1672908333581490000,9.292489990234374,-2.3642587661743164,-0.907912015914917,3.8472323417663574
1672908333591140400,9.302140380859376,-1.9929585456848145,-1.2725633382797241,2.3281705379486084
1672908333600791000,9.311791015625,-1.0988044738769531,-1.2824479341506958,1.9128894805908203
1672908333610441500,9.32144140625,-0.22508811950683594,-1.2767460346221924,0.324130117893219
1672908333620092200,9.331092041015625,1.1950225830078125,-1.6024686098098755,-4.770384311676025
1672908333629742800,9.340742919921874,2.895808219909668,-1.3194146156311035,-8.08834457397461
1672908333639393300,9.350393310546876,5.470276832580566,-0.8153960704803467,-9.477807998657227
1672908333649044000,9.3600439453125,4.634807586669922,0.9469487071037292,-3.507484197616577
1672908333658694400,9.3696943359375,1.1941299438476562,1.6278632879257202,-0.28567203879356384
1672908333668345000,9.379344970703125,-1.5366744995117188,0.1459483504295349,-2.8632545471191406
1672908333677995800,9.388995849609374,-2.4382643699645996,-0.9070841073989868,-3.845795154571533
1672908333687646200,9.398646240234376,-1.1260385513305664,-1.3187803030014038,-6.106517791748047
1672908333697297000,9.408296875,0.5410604476928711,-0.045815445482730865,-6.425591468811035
1672908333706947300,9.417947265625,1.4578838348388672,0.25635218620300293,-6.2993669509887695
1672908333716598000,9.427597900390625,1.1343345642089844,0.40413519740104675,-5.670837879180908
1672908333726248400,9.43724853515625,0.35048961639404297,0.3447408080101013,-3.6123244762420654
1672908333735899100,9.446899169921876,0.18333911895751953,-0.05266910791397095,-2.7945456504821777
1672908333745549600,9.456549560546875,0.5908012390136719,-0.8765760064125061,-2.446509838104248
1672908333755200300,9.4662001953125,0.3501396179199219,-1.4157084226608276,-0.09686082601547241
1672908333764850700,9.4758505859375,-0.6081485748291016,-0.8563801050186157,2.24963116645813
1672908333774501400,9.48550146484375,-0.27568721771240234,-0.6661942601203918,2.775263786315918
1672908333784152000,9.495152099609374,0.8199396133422852,-1.2415589094161987,1.8102198839187622
1672908333793802500,9.504802490234376,0.48120880126953125,-1.677607774734497,0.5735380053520203
1672908333803453200,9.514453125,-0.2182445526123047,-1.4696491956710815,0.49547886848449707
1672908333813103600,9.524103515625,-0.27466487884521484,-0.9440490007400513,2.195305347442627
1672908333822754300,9.53375439453125,0.07378482818603516,-0.593181312084198,3.9001617431640625
1672908333832405000,9.543405029296874,0.9658889770507812,-0.9194857478141785,1.6072577238082886
1672908333842055400,9.553055419921876,0.3748817443847656,-1.2065662145614624,1.3856260776519775
1672908333851705900,9.562705810546875,0.003964424133300781,-0.9288873672485352,1.3493244647979736
1672908333861356500,9.5723564453125,-0.3226795196533203,-0.8584508299827576,-0.4826629161834717
1672908333871007200,9.58200732421875,0.36810970306396484,-0.9476068019866943,-0.796715497970581
1672908333880657700,9.59165771484375,0.9109916687011719,-0.2697083652019501,0.6828386783599854
1672908333890308400,9.601308349609376,0.3143939971923828,0.18840251863002777,1.8532394170761108
1672908333899958800,9.610958740234375,-0.7188453674316406,0.2883464992046356,0.6502588987350464
1672908333909609500,9.620609375,-0.648310661315918,-0.6935155391693115,-0.21488451957702637
1672908333919260000,9.630260009765625,1.3553247451782227,-1.9998524188995361,-0.00812387466430664
1672908333928910600,9.63991064453125,1.8798608779907227,-0.1517331302165985,3.4969005584716797
1672908333938561300,9.649561279296876,1.9200410842895508,0.5447733402252197,5.733476638793945
1672908333948211700,9.659211669921875,-0.6255836486816406,-0.7617316246032715,6.175314426422119
1672908333957862400,9.6688623046875,-3.246755599975586,-1.2972344160079956,7.625036716461182
1672908333967512800,9.678512939453125,-1.2100887298583984,-1.5089762210845947,5.107239246368408
1672908333977163500,9.68816357421875,0.8067445755004883,-1.8451188802719116,2.0799014568328857
1672908333986814000,9.69781396484375,0.4464902877807617,-1.1031311750411987,3.0452330112457275
1672908333996464600,9.707464599609375,-1.3607807159423828,-1.3730285167694092,4.343899726867676
1672908334006115000,9.717114990234375,-4.147732734680176,-1.972782850265503,4.980698108673096
1672908334015765800,9.726765869140625,-6.232234954833984,-2.683692216873169,4.944667339324951
1672908334025416400,9.73641650390625,-7.694936752319336,-3.217820167541504,2.2024788856506348
1672908334035067000,9.74606689453125,-9.051762580871582,-4.296875953674316,-2.537621021270752
1672908334044717600,9.755717529296875,-0.021068572998046875,-6.1952714920043945,-7.629200458526611
1672908334054368000,9.765367919921875,3.2073373794555664,-4.330984115600586,-8.87857437133789
1672908334064018700,9.775018798828125,7.989676475524902,-0.3678809106349945,-11.7095308303833
1672908334073669000,9.784669189453124,7.703494071960449,3.550229072570801,-10.133112907409668
1672908334083319800,9.79431982421875,6.242552757263184,3.1818687915802,-11.484448432922363
1672908334092970500,9.803970458984375,2.595355987548828,1.3902294635772705,-7.972398281097412
1672908334102621000,9.813620849609375,-0.6039619445800781,0.9206300973892212,-4.224356651306152
1672908334112271600,9.823271728515625,-2.132573127746582,1.1882600784301758,-5.4093732833862305
1672908334121922000,9.832922119140624,-2.659977912902832,0.503942608833313,-5.452284336090088
1672908334131572700,9.84257275390625,-1.9179325103759766,-0.0933409184217453,-2.3598432540893555
1672908334141223200,9.85222314453125,-0.04970264434814453,-0.325755774974823,0.3298006057739258
1672908334150873900,9.861873779296875,1.0753173828125,-1.0020461082458496,2.694490671157837
1672908334160524300,9.871524169921875,0.9532737731933594,-1.717714548110962,5.637160301208496
1672908334170175000,9.881175048828124,0.4946451187133789,-2.327322006225586,7.088986396789551
1672908334179825700,9.89082568359375,-0.05097484588623047,-2.6740970611572266,7.538734436035156
1672908334189476000,9.90047607421875,-0.3212738037109375,-2.8542187213897705,7.374266624450684
1672908334199126800,9.910126708984375,-0.3848848342895508,-2.6376378536224365,6.602236747741699
1672908334208777200,9.919777099609375,0.7677888870239258,-3.0276753902435303,0.8808611035346985
1672908334218428000,9.929427978515625,-0.1338357925415039,-2.878323554992676,-4.245943069458008
1672908334228078600,9.93907861328125,-0.8288106918334961,-1.6851062774658203,-12.006209373474121
1672908334237729000,9.94872900390625,0.8280172348022461,-0.033422619104385376,-14.13825798034668
1672908334247379700,9.958379638671875,1.599919319152832,1.7875040769577026,-6.143929958343506
1672908334257030100,9.968030029296875,2.1191043853759766,1.2325295209884644,-2.372704029083252
1672908334266680800,9.977680908203125,1.344503402709961,0.6004836559295654,2.266148805618286
1672908334276331300,9.987331298828124,-0.8684558868408203,-0.4696904718875885,6.861159801483154
1672908334285982000,9.99698193359375,-3.517242908477783,-1.727858304977417,9.302366256713867
1672908334295632400,10.00663232421875,-4.995116710662842,-2.42738938331604,10.697050094604492
1672908334305283000,10.016282958984375,-3.4713587760925293,-2.754422187805176,7.922530651092529
1672908334314933800,10.025933837890625,-1.1660423278808594,-4.625225067138672,3.4109177589416504
1672908334324584200,10.035584228515624,0.03483772277832031,-5.329209804534912,1.939355731010437
1672908334334235000,10.04523486328125,1.987421989440918,-2.9565436840057373,1.0060979127883911
1672908334343885300,10.05488525390625,2.2606382369995117,-2.1912381649017334,-1.9545984268188477
1672908334353536000,10.064535888671875,1.520589828491211,-1.1156587600708008,-1.6516590118408203
1672908334363186400,10.0741865234375,0.2791481018066406,-2.4502711296081543,-0.9154888987541199
1672908334372837000,10.083837158203124,-1.251917839050293,-2.7743613719940186,-0.9360998868942261
1672908334382487800,10.09348779296875,-2.0639724731445312,-2.459374189376831,-1.4296659231185913
1672908334392138200,10.10313818359375,-1.3529472351074219,-1.8461921215057373,-0.7959940433502197
1672908334401789000,10.112788818359375,1.7861747741699219,-1.2975436449050903,-3.5877184867858887
1672908334411439400,10.122439453125,2.305543899536133,-0.6214444637298584,-2.614624500274658
1672908334421090000,10.132090087890624,2.7192182540893555,-0.3960399925708771,-0.020168304443359375
1672908334430740500,10.141740478515626,2.1289939880371094,-0.8025516271591187,-0.6972099542617798
1672908334440391200,10.15139111328125,0.5127048492431641,-1.0683149099349976,0.6078922748565674
1672908334450041900,10.161041748046875,-0.8504810333251953,-1.0984188318252563,0.5168615579605103
1672908334459692300,10.1706923828125,-0.17739200592041016,-0.6752403974533081,-1.5334230661392212
1672908334469343000,10.180343017578124,0.00997161865234375,-1.6223881244659424,-2.014410972595215
1672908334478993400,10.189993408203126,1.0529050827026367,-2.1251721382141113,-2.791591167449951
1672908334488644000,10.19964404296875,0.597442626953125,-1.9353587627410889,-2.4412498474121094
1672908334498294500,10.20929443359375,-1.1114139556884766,-1.1325327157974243,0.2738276720046997
1672908334507945200,10.2189453125,-1.7020044326782227,-0.7473665475845337,0.32793867588043213
1672908334517596000,10.228595947265624,-0.3194570541381836,-1.1296528577804565,-4.402724266052246
1672908334527246300,10.238246337890626,0.3957090377807617,-1.0105209350585938,-2.67164945602417
1672908334536897000,10.24789697265625,1.0047502517700195,-0.13393878936767578,1.1454362869262695
1672908334546547500,10.25754736328125,0.7384347915649414,-0.7546167373657227,3.6504669189453125
1672908334556198100,10.2671982421875,-0.6196937561035156,-1.6969342231750488,5.2393670082092285
1672908334565848600,10.2768486328125,-1.836935043334961,-1.6897144317626953,6.0363850593566895
1672908334575499300,10.286499267578124,-2.4075708389282227,-2.263061285018921,4.992179870605469
1672908334585149700,10.296149658203126,-2.110825538635254,-2.8308465480804443,3.3640084266662598
1672908334594800400,10.30580029296875,-0.9273033142089844,-3.0277743339538574,2.8287174701690674
1672908334604451000,10.315451171875,-0.6043624877929688,-3.5548181533813477,2.5388524532318115
1672908334614101500,10.3251015625,-0.7680320739746094,-3.9999923706054688,2.6531784534454346
1672908334623752200,10.334752197265624,-4.3181939125061035,-4.369554042816162,4.003652572631836
1672908334633402600,10.344402587890626,-8.323728561401367,-4.553693771362305,3.6293535232543945
1672908334643053300,10.35405322265625,-5.885407447814941,-4.704751968383789,0.3059592545032501
1672908334652704000,10.3637041015625,-2.6252269744873047,-4.117483139038086,-2.2192537784576416
1672908334662354400,10.3733544921875,4.680070877075195,-3.958627700805664,-9.478931427001953
1672908334672005000,10.383005126953124,11.977301597595215,-2.0433428287506104,-11.048466682434082
1672908334681655600,10.392655517578126,14.251129150390625,-0.36916959285736084,-9.797511100769043
1672908334691306200,10.40230615234375,6.388555526733398,-0.37290769815444946,-6.170021057128906
1672908334700956700,10.411956787109375,-1.0611820220947266,0.39010313153266907,-1.0462772846221924
1672908334710607400,10.421607421875,-3.187527656555176,-0.4023171067237854,-0.4608688950538635
1672908334720258000,10.431258056640624,-4.353833198547363,-2.885566234588623,-2.9412145614624023
1672908334729908500,10.440908447265626,-4.786183834075928,-2.8618438243865967,-3.8122963905334473
1672908334739559200,10.45055908203125,-0.8687047958374023,0.25249677896499634,-3.421186923980713
1672908334749209600,10.460209716796875,2.7699785232543945,-0.5546000003814697,-3.242833137512207
1672908334758860300,10.4698603515625,1.0043153762817383,-2.6654446125030518,-2.382230281829834
1672908334768510700,10.4795107421875,1.4178152084350586,-1.2717580795288086,1.673577070236206
1672908334778161400,10.489161376953126,1.0507383346557617,0.4772985279560089,0.7521686553955078
1672908334787812000,10.49881201171875,-1.460371971130371,0.6332401037216187,0.0005212724208831787
1672908334797462500,10.508462646484375,-2.720280170440674,-0.9461876153945923,-0.7638182640075684
1672908334807113200,10.51811328125,-0.5797977447509766,-2.9019393920898438,-1.5037355422973633
1672908334816763600,10.527763671875,1.007889747619629,-3.2187235355377197,-0.37351399660110474
1672908334826414300,10.537414306640626,1.7948808670043945,-1.8563302755355835,1.060316562652588
1672908334836064800,10.547064697265625,0.74700927734375,-0.47714364528656006,2.3058784008026123
1672908334845715500,10.556715576171875,-0.42228126525878906,-1.2147104740142822,1.5264394283294678
1672908334855366100,10.5663662109375,-1.414719581604004,-1.3322246074676514,0.28998592495918274
1672908334865016600,10.5760166015625,-1.0809297561645508,-1.786563515663147,-1.933664083480835
1672908334874667300,10.585667236328124,-0.2719697952270508,-1.0852246284484863,-2.2732622623443604
1672908334884317700,10.595317626953126,0.5740041732788086,-0.9683416485786438,-3.6056904792785645
1672908334893968400,10.604968505859375,0.7074079513549805,-0.8754667043685913,-3.1105592250823975
1672908334903618800,10.614618896484375,0.6676149368286133,-2.190816879272461,-3.9608376026153564
1672908334913269500,10.62426953125,0.6417512893676758,-0.15477517247200012,-1.6945114135742188
1672908334922920200,10.633920166015624,1.3946542739868164,0.14939720928668976,-1.1527769565582275
1672908334932570600,10.643570556640626,0.4516763687133789,-1.0685880184173584,-1.3601458072662354
1672908334942221300,10.65322119140625,-0.26823997497558594,-1.047707438468933,-0.6414698958396912
1672908334951871700,10.662871826171875,0.992802619934082,0.07736389338970184,-1.3043756484985352
1672908334961522400,10.6725224609375,0.8709640502929688,-0.3972306251525879,-2.4786367416381836
1672908334971173000,10.682173095703124,1.0928401947021484,-0.3314329981803894,-1.4533514976501465
1672908334980823600,10.691823486328126,1.6391572952270508,-0.6269968748092651,-2.9672679901123047
1672908334990474200,10.70147412109375,1.3113842010498047,-0.7403375506401062,-0.6812931299209595
1672908335000124700,10.711124755859375,0.1891193389892578,-0.7251782417297363,1.970276117324829
1672908335009775400,10.720775390625,-1.2446670532226562,-1.024440050125122,2.6178431510925293
1672908335019425800,10.73042578125,-1.6052474975585938,-1.4721417427062988,2.432432174682617
1672908335029076500,10.740076416015626,-1.139547348022461,-1.7830175161361694,1.9278475046157837
1672908335038727200,10.74972705078125,0.0028133392333984375,-2.2415547370910645,1.3791728019714355
1672908335048377600,10.759377685546875,0.6242504119873047,-2.932900905609131,0.6942419409751892
1672908335058028300,10.7690283203125,1.0409307479858398,-1.5715904235839844,1.1320877075195312
1672908335067678700,10.7786787109375,0.7121438980102539,-1.1577283143997192,0.6111704707145691
1672908335077329400,10.788329345703126,-0.5421638488769531,-0.9525454044342041,0.41370123624801636
1672908335086980000,10.79797998046875,-1.3902177810668945,-1.0557843446731567,-0.25518548488616943
1672908335096630500,10.807630615234375,-1.8173828125,-0.811779260635376,1.169917345046997
1672908335106281200,10.81728125,-1.3166227340698242,-2.162321090698242,-0.46540170907974243
1672908335115931600,10.826931640625,-0.8842525482177734,-2.0053610801696777,0.25565069913864136
1672908335125582300,10.836582275390626,0.11570930480957031,-1.9657037258148193,0.17019647359848022
1672908335135232800,10.846232666015625,-0.07268619537353516,-2.2478444576263428,-1.5179579257965088
1672908335144883500,10.855883544921875,-0.9311513900756836,-1.9654241800308228,-1.9793150424957275
1672908335154534100,10.8655341796875,-0.5000123977661133,-1.5235148668289185,-2.341710329055786
1672908335164184600,10.8751845703125,-0.3181304931640625,-1.6258330345153809,-3.8402559757232666
1672908335173835300,10.884835205078126,-0.2694416046142578,-2.0552773475646973,-4.9528656005859375
1672908335183485700,10.894485595703125,-0.41785240173339844,-1.8528776168823242,-4.359909534454346
1672908335193136400,10.904136474609375,0.2345743179321289,-0.8722087144851685,-2.359574794769287
1672908335202787000,10.913787109375,0.8759727478027344,-0.04673709347844124,-2.9492855072021484
1672908335212437500,10.9234375,0.5082788467407227,-0.1232634037733078,-3.6107683181762695
1672908335222088200,10.933088134765624,0.42850780487060547,-0.2445836216211319,-3.9361367225646973
1672908335231738600,10.942738525390626,1.2043085098266602,-0.24651004374027252,-3.083627939224243
1672908335241389300,10.952389404296875,1.0281963348388672,-1.177558422088623,-3.5010673999786377
1672908335251039700,10.962039794921875,0.41625022888183594,0.22050443291664124,-1.951558232307434
1672908335260690400,10.9716904296875,0.6085681915283203,0.01573752984404564,-2.753467559814453
1672908335270341000,10.981341064453124,0.04572105407714844,-0.6564709544181824,-2.9058034420013428
1672908335279991600,10.990991455078126,-0.5537385940551758,-0.040151000022888184,-2.494381904602051
1672908335289642200,11.000642333984375,-0.870269775390625,0.524211049079895,-1.2775654792785645
1672908335299292700,11.010292724609375,0.1357593536376953,0.14779356122016907,-1.1706194877624512
1672908335308943400,11.019943359375,0.3193941116333008,1.5330270528793335,0.02266526222229004
1672908335318594000,11.029593994140624,0.8741693496704102,0.7486759424209595,-0.5521500706672668
1672908335328244500,11.039244384765626,-0.13898849487304688,-1.2395278215408325,-0.5600637197494507
1672908335337895200,11.048895263671875,-0.7165327072143555,0.03514070063829422,1.3377509117126465
1672908335347545600,11.058545654296875,-0.5020599365234375,0.48266392946243286,1.5682666301727295
1672908335357196300,11.0681962890625,-0.5586833953857422,1.5768413543701172,1.997174859046936
1672908335366847000,11.077846923828124,-1.0503501892089844,-0.1736076921224594,1.0633496046066284
1672908335376497400,11.087497314453126,-1.888622760772705,-1.3666768074035645,2.137805700302124
1672908335386148000,11.097148193359375,-0.9471893310546875,0.8156577944755554,3.98158597946167
1672908335395798500,11.106798583984375,0.8935518264770508,1.83889639377594,2.905987501144409
1672908335405449200,11.11644921875,0.14948177337646484,-1.4968335628509521,0.16205346584320068
1672908335415099600,11.126099609375,-0.4130239486694336,-0.8474135398864746,0.7754771709442139
1672908335424750300,11.135750244140626,0.5452585220336914,-0.5013487339019775,-0.2036716341972351
1672908335434401000,11.145401123046875,0.6367931365966797,-1.618242621421814,-2.4104745388031006
1672908335444051500,11.155051513671875,1.227635383605957,-0.9543656706809998,-3.6172983646392822
1672908335453702100,11.1647021484375,2.5380430221557617,0.0730154737830162,-3.5690860748291016
1672908335463352600,11.1743525390625,2.1849136352539062,-0.10857914388179779,-3.461245059967041
1672908335473003300,11.184003173828126,1.0781745910644531,0.6159185171127319,-3.402144432067871
1672908335482654000,11.193654052734376,0.019823074340820312,-0.25291889905929565,-3.9564321041107178
1672908335492304400,11.203304443359375,-0.6944742202758789,0.30255740880966187,-3.485201835632324
1672908335501955000,11.212955078125,-0.40221309661865234,0.33299538493156433,-3.970921754837036
1672908335511605500,11.22260546875,-0.8055706024169922,-1.4439597129821777,-4.416805744171143
1672908335521256200,11.232256103515626,-1.0879135131835938,-1.3719825744628906,-3.9177842140197754
1672908335530906600,11.24190673828125,-1.013479232788086,-0.38095057010650635,-2.085951089859009
1672908335540557300,11.251557373046875,-0.0011663436889648438,0.8109386563301086,-1.397252082824707
1672908335550208000,11.2612080078125,0.06730175018310547,0.3859120011329651,-1.8553946018218994
1672908335559858400,11.2708583984375,0.36968517303466797,1.6362152099609375,-2.184795618057251
1672908335569509000,11.280509033203124,0.09605121612548828,1.029076099395752,-2.684781074523926
1672908335579159600,11.29015966796875,-1.1841230392456055,-1.8424386978149414,-2.9790589809417725
1672908335588810200,11.299810302734375,-1.5532398223876953,-2.255312919616699,-1.7414706945419312
1672908335598461000,11.3094609375,-0.4026012420654297,-2.725419759750366,-1.9271373748779297
1672908335608111400,11.319111328125,0.6088142395019531,-1.6293244361877441,-1.0476137399673462
1672908335617762000,11.328761962890624,0.48082923889160156,-0.28359395265579224,0.883553147315979
1672908335627412500,11.33841259765625,-0.3015289306640625,1.4089295864105225,1.7717596292495728
1672908335637063200,11.348063232421875,-1.2778730392456055,0.8842192888259888,2.131364583969116
1672908335646713900,11.3577138671875,-1.73529052734375,-0.2892097532749176,0.876806914806366
1672908335656364300,11.3673642578125,-1.2163782119750977,-0.5777039527893066,0.459006130695343
1672908335666015000,11.377014892578124,-0.14681339263916016,0.013568490743637085,-0.5477718114852905
1672908335675665400,11.38666552734375,1.6532468795776367,3.020261287689209,0.2778620421886444
1672908335685316000,11.396316162109375,2.1977338790893555,3.195974588394165,-1.042196273803711
1672908335694966800,11.405966796875,1.0290889739990234,1.857999563217163,-3.318732500076294
1672908335704617200,11.4156171875,0.2601156234741211,0.6894365549087524,-5.285738945007324
1672908335714268000,11.425267822265624,-0.09636211395263672,0.638160765171051,-5.886615753173828
1672908335723918300,11.43491845703125,0.49887657165527344,1.078072428703308,-6.0594482421875
1672908335733569000,11.444569091796875,1.554265022277832,2.5257768630981445,-6.042582035064697
1672908335743219700,11.4542197265625,1.3799982070922852,0.3836718797683716,-7.408757209777832
1672908335752870100,11.4638701171875,-0.622039794921875,-2.136078357696533,-6.823992729187012
1672908335762520800,11.473520751953124,-1.8836517333984375,-3.312026023864746,-4.9612016677856445
1672908335772171300,11.483171142578126,-1.9422950744628906,-2.763988733291626,-2.386279821395874
1672908335781822000,11.492822021484375,-1.0693950653076172,-0.23523986339569092,0.8636990189552307
1672908335791472600,11.50247265625,0.43271446228027344,1.3103408813476562,1.6681100130081177
1672908335801123000,11.512123046875,2.039003372192383,0.14325720071792603,1.1565285921096802
1672908335810773800,11.521773681640624,2.926619529724121,2.027062177658081,0.7097775936126709
1672908335820424200,11.531424072265626,1.9534187316894531,1.8100075721740723,-0.02485032007098198
1672908335830075000,11.541074951171876,-0.08416557312011719,-0.196855366230011,-0.5392419695854187
1672908335839725600,11.5507255859375,-2.286787509918213,-1.1128897666931152,-1.8578649759292603
1672908335849376000,11.5603759765625,-1.5336456298828125,1.4390779733657837,-0.8917931318283081
1672908335859026700,11.570026611328124,0.8830032348632812,2.686312675476074,-1.166576623916626
1672908335868677000,11.579677001953126,1.212301254272461,-0.35596710443496704,-3.874403238296509
1672908335878327800,11.589327880859376,-0.14853954315185547,-2.0846853256225586,-3.8945984840393066
1672908335887978200,11.598978271484375,-0.8628005981445312,-0.35660189390182495,-2.0820319652557373
1672908335897629000,11.60862890625,-1.0190668106079102,0.7972117066383362,-0.9541664123535156
1672908335907279600,11.618279541015625,-0.862238883972168,0.41586819291114807,-1.0787148475646973
1672908335916930000,11.627929931640624,-0.13792991638183594,-1.2675378322601318,-1.764034628868103
1672908335926580700,11.637580810546876,-0.5022249221801758,-2.3320155143737793,-1.323134183883667
1672908335936231200,11.647231201171875,-0.5858888626098633,-0.8912705183029175,-1.8245651721954346
1672908335945881900,11.6568818359375,-0.6246156692504883,-0.23126327991485596,-1.8179712295532227
1672908335955532500,11.666532470703125,0.4461822509765625,-0.5364164113998413,-1.1445232629776
1672908335965183000,11.676182861328124,1.1123580932617188,-0.9540426135063171,0.9933525323867798
1672908335974833700,11.685833740234376,1.4129304885864258,-0.636241614818573,2.756718397140503
1672908335984484000,11.695484130859375,1.231649398803711,0.08967286348342896,2.655916929244995
1672908335994134800,11.705134765625,1.1124420166015625,-0.20345401763916016,2.4907240867614746
1672908336003785500,11.714785400390625,0.6785898208618164,-0.3891320824623108,2.174734592437744
1672908336013436000,11.724435791015624,0.17441654205322266,-0.2581802010536194,1.5318409204483032
1672908336023086600,11.734086669921876,0.33559513092041016,-0.2787041664123535,0.6810436248779297
1672908336032737300,11.7437373046875,0.46320056915283203,-0.41094303131103516,0.2789093255996704
1672908336042387700,11.7533876953125,0.07480430603027344,-0.3561708331108093,-0.03471475839614868
1672908336052038400,11.763038330078125,0.5591573715209961,-0.7704563140869141,-0.9533655643463135
1672908336061688800,11.772688720703124,0.6435737609863281,-0.8725066184997559,-1.9039820432662964
1672908336071339500,11.782339599609376,-0.15790367126464844,-1.1707087755203247,-2.3637986183166504
1672908336080990000,11.791989990234375,-0.9813108444213867,-1.3701274394989014,-2.247572422027588
1672908336090640600,11.801640625,-1.769881248474121,-1.4461580514907837,-1.78074049949646
1672908336100291300,11.811291259765625,-2.0122814178466797,-2.076801061630249,-1.128562092781067
1672908336109941800,11.820941650390624,-1.1328811645507812,-1.523780345916748,-1.0313512086868286
1672908336119592400,11.830592529296876,-0.9207305908203125,-1.057408332824707,-1.650682806968689
1672908336129243000,11.840242919921875,-0.5125932693481445,-0.44442445039749146,-1.5921584367752075
1672908336138893600,11.8498935546875,0.038262367248535156,-0.19636599719524384,-0.6159371137619019
1672908336148544300,11.859544189453125,0.12005805969238281,-0.9172775745391846,0.34672659635543823
1672908336158194700,11.869194580078124,-0.3426380157470703,-0.707490086555481,1.0539270639419556
1672908336167845400,11.878845458984374,-0.3814411163330078,-0.2792460322380066,-0.08030721545219421
1672908336177495800,11.888495849609376,-1.201420783996582,-0.47516095638275146,-0.2017737329006195
1672908336187146500,11.898146484375,-0.7351484298706055,0.30386099219322205,-0.24639049172401428
1672908336196797200,11.907797119140625,0.33863162994384766,0.7186698913574219,-0.3591620624065399
1672908336206447600,11.917447509765625,0.7026405334472656,-0.5493500232696533,-0.7515524625778198
1672908336216098300,11.927098388671874,0.5257949829101562,-0.11152378469705582,-1.120131254196167
1672908336225749000,11.9367490234375,0.06536102294921875,-1.158599853515625,-1.2084319591522217
1672908336235399400,11.9463994140625,-1.2657060623168945,-0.5424078106880188,-1.3716483116149902
1672908336245050000,11.956050048828125,-1.9990768432617188,-0.8240320682525635,-1.169055700302124
1672908336254700500,11.965700439453125,-1.2112159729003906,-1.4437915086746216,-0.3772255778312683
1672908336264351200,11.975351318359374,-2.0301895141601562,-0.17922089993953705,-1.5701353549957275
1672908336274002000,11.985001953125,-1.3570384979248047,-0.7726081013679504,-1.522345781326294
1672908336283652400,11.99465234375,1.1417417526245117,0.3452831208705902,-0.07895588874816895
1672908336293303000,12.004302978515625,1.6188774108886719,-0.19859464466571808,-0.0466865599155426
1672908336302953500,12.013953369140625,2.908863067626953,-0.4173314869403839,0.6909068822860718
1672908336312604200,12.023604248046874,2.717116355895996,0.19101673364639282,-0.7769414186477661
1672908336322254600,12.033254638671876,2.0934505462646484,1.0624804496765137,-0.11086446046829224
1672908336331905300,12.0429052734375,0.19199657440185547,-1.6820592880249023,0.16608333587646484
1672908336341556000,12.052555908203125,-1.6229009628295898,0.0007286518812179565,0.01723545789718628
1672908336351206400,12.062206298828125,-1.398773193359375,0.7486470341682434,0.05557984113693237
